Shimmer_F5D4_Timestamp_FormattedUnix_CAL,Shimmer_F5D4_Accel_LN_X_CAL,Shimmer_F5D4_Accel_LN_Y_CAL,Shimmer_F5D4_Accel_LN_Z_CAL,Shimmer_F5D4_Accel_WR_X_CAL,Shimmer_F5D4_Accel_WR_Y_CAL,Shimmer_F5D4_Accel_WR_Z_CAL,Shimmer_F5D4_GSR_Range_CAL,Shimmer_F5D4_GSR_Skin_Conductance_CAL,Shimmer_F5D4_GSR_Skin_Resistance_CAL,Shimmer_F5D4_Gyro_X_CAL,Shimmer_F5D4_Gyro_Y_CAL,Shimmer_F5D4_Gyro_Z_CAL,Shimmer_F5D4_PPG_A13_CAL,Shimmer_F5D4_PPG_IBI_CAL,Shimmer_F5D4_PPGtoHR_CAL,Shimmer_F5D4_GSR_Skin_Conductance_LPF_CAL,
yyyy/mm/dd hh:mm:ss.000,m/(s^2),m/(s^2),m/(s^2),m/(s^2),m/(s^2),m/(s^2),no_units,uS,kOhms,deg/s,deg/s,deg/s,mV,ms,BPM,uS,
2023-08-10 11:44:31.877000,-4.927710843373494,-2.3373493975903616,8.132530120481928,-2.1974248927038627,-4.930104230533415,8.770079705702022,2.0,1.8805860805860806,531.7491234904558,0.21875182098945356,-0.03251558766971586,0.046966959967367786,1276.1904761904761,-1.0,66.38125464244716,1.8769870229287278,
2023-08-10 11:44:31.885000,-4.9156626506024095,-2.325301204819277,8.108433734939759,-2.199877375843041,-4.96934396076027,8.792152053954629,2.0,1.8805860805860806,531.7491234904558,0.06421537206456586,0.03228250101975418,-0.10850183555736834,1270.3296703296703,-1.0,66.38125464244716,1.877077905129497,
2023-08-10 11:44:31.893000,-4.9156626506024095,-2.313253012048193,8.108433734939759,-2.1753525444512567,-4.935009196811771,8.752912323727774,2.0,1.8805860805860806,531.7491234904558,-0.028553114620360476,-0.2563953149583349,-0.0037293863993941435,1265.9340659340658,-1.0,66.38125464244716,1.8771667887983534,
2023-08-10 11:44:31.900000,-4.927710843373494,-2.325301204819277,8.084337349397591,-2.180257510729614,-4.93746167995095,8.755364806866952,2.0,1.8805860805860806,531.7491234904558,0.0030301264495069553,0.26723384418157525,-0.06887710506380756,1264.4688644688645,-1.0,66.38125464244716,1.8772537415322148,
2023-08-10 11:44:31.908000,-4.903614457831326,-2.313253012048193,8.108433734939759,-2.1140404659717964,-4.935009196811771,8.777437155119559,2.0,1.8805860805860806,531.7491234904558,0.06479808868947004,0.16141250509877092,-0.054425732766155636,1263.003663003663,-1.0,66.38125464244716,1.877338829933881,
2023-08-10 11:44:31.916000,-4.891566265060241,-2.325301204819277,8.084337349397591,-2.2219497240956465,-4.954629061925199,8.75781729000613,2.0,1.882051282051282,531.3351498637602,0.14055124992716128,0.15908163859914898,-0.23833109958627138,1261.5384615384614,-1.0,66.38125464244716,1.8774221195219833,
2023-08-10 11:44:31.923000,-4.9397590361445785,-2.3012048192771086,8.096385542168676,-2.1925199264255055,-4.920294297976701,8.733292458614347,2.0,1.8805860805860806,531.7491234904558,0.0018646931996968547,0.2624555678573505,-0.19241302954373288,1260.8058608058607,-1.0,66.38125464244716,1.8775036755606036,
2023-08-10 11:44:31.931000,-4.9156626506024095,-2.325301204819277,8.108433734939759,-2.1925199264255055,-4.883507050889025,8.779889638258737,2.0,1.8805860805860806,531.7491234904558,0.0941670065846981,0.5027679039683005,0.23413553988695304,1259.3406593406592,-1.0,66.38125464244716,1.8775835624897457,
2023-08-10 11:44:31.939000,-4.903614457831326,-2.313253012048193,8.084337349397591,-2.141017780502759,-4.895769466584917,8.770079705702022,2.0,1.8805860805860806,531.7491234904558,-0.08903910028553089,0.35953615756657475,-0.1517394091253424,1254.212454212454,-1.0,66.38125464244716,1.8776618428007497,
2023-08-10 11:44:31.946000,-4.927710843373494,-2.325301204819277,8.120481927710843,-2.148375229920294,-4.957081545064377,8.792152053954629,2.0,1.8805860805860806,531.7491234904558,-0.16560806479808798,0.35522405454227685,0.2751587902802869,1249.084249084249,-1.0,66.38125464244716,1.8777385778846223,
2023-08-10 11:44:31.954000,-4.9397590361445785,-2.313253012048193,8.084337349397591,-2.141017780502759,-4.930104230533415,8.698957694665848,2.0,1.8805860805860806,531.7491234904558,-0.1964920459180704,0.5188508828156871,-0.0497639997669135,1247.6190476190475,-1.0,66.38125464244716,1.8778138278676046,
2023-08-10 11:44:31.962000,-4.9156626506024095,-2.313253012048193,8.072289156626507,-2.209687308399755,-4.964438994481912,8.765174739423665,2.0,1.8805860805860806,531.7491234904558,-0.08927218693549256,0.31396771749898095,0.302196841675893,1249.084249084249,-1.0,66.38125464244716,1.8778876510657918,
2023-08-10 11:44:31.969000,-4.9156626506024095,-2.3012048192771086,8.108433734939759,-2.2268546903740036,-4.92274678111588,8.765174739423665,2.0,1.8805860805860806,531.7491234904558,-0.10325738593322072,0.14416409300157415,0.025289901520890546,1250.5494505494505,-1.0,66.38125464244716,1.877960104360599,
2023-08-10 11:44:31.977000,-4.927710843373494,-2.313253012048193,8.108433734939759,-2.158185162477008,-4.878602084610668,8.74310239117106,2.0,1.8805860805860806,531.7491234904558,-0.025989161470776866,-0.05605733931588995,-0.09929491288386447,1252.7472527472526,-1.0,66.38125464244716,1.8780312430893051,
2023-08-10 11:44:31.985000,-4.9156626506024095,-2.3012048192771086,8.108433734939759,-2.158185162477008,-4.927651747394236,8.750459840588595,2.0,1.8805860805860806,531.7491234904558,0.06561389196433763,0.2168871277897567,-0.1770293106462325,1254.212454212454,-1.0,66.38125464244716,1.878101120943284,
2023-08-10 11:44:31.992000,-4.9156626506024095,-2.325301204819277,8.108433734939759,-2.2145922746781115,-4.90557939914163,8.752912323727774,2.0,1.8805860805860806,531.7491234904558,0.005827166249052237,-0.09032107686032356,-0.160829788473865,1257.142857142857,-1.0,66.38125464244716,1.8781697894160203,
2023-08-10 11:44:32,-4.9397590361445785,-2.325301204819277,8.108433734939759,-2.1729000613120784,-4.915389331698345,8.806866952789699,2.0,1.8805860805860806,531.7491234904558,0.14194976982693305,-0.01503408892255741,0.12901346075403547,1260.8058608058607,-1.0,66.38125464244716,1.8782372977838269,
2023-08-10 11:44:32.008000,-4.927710843373494,-2.313253012048193,8.108433734939759,-2.1091354996934393,-4.927651747394236,8.762722256284487,2.0,1.879120879120879,532.1637426900585,0.050812889691743635,0.12237049123011434,0.1554687955247361,1261.5384615384614,-1.0,66.38125464244716,1.878303693515164,
2023-08-10 11:44:32.015000,-4.9397590361445785,-2.3373493975903616,8.096385542168676,-2.160637645616186,-4.908031882280809,8.765174739423665,2.0,1.882051282051282,531.3351498637602,0.0067595128489024,0.18192413029543805,-0.06048598566517085,1262.2710622710622,-1.0,66.38125464244716,1.8783690217026414,
2023-08-10 11:44:32.023000,-4.951807228915663,-2.313253012048193,8.072289156626507,-2.182709993868792,-4.917841814837523,8.745554874310239,2.0,1.8776556776556776,532.5790089738588,0.09789639298409182,0.1355398869529749,0.33611094924538193,1256.4102564102564,-1.0,66.38125464244716,1.8784333259087007,
2023-08-10 11:44:32.030000,-4.927710843373494,-2.3012048192771086,8.084337349397591,-2.1925199264255055,-4.957081545064377,8.72838749233599,2.0,1.8776556776556776,532.5790089738588,0.342287745469378,0.07447118466289857,0.17854437387098643,1250.5494505494505,-1.0,66.38125464244716,1.8784966472245557,
2023-08-10 11:44:32.038000,-4.927710843373494,-2.3012048192771086,8.084337349397591,-2.1434702636419374,-4.964438994481912,8.75781729000613,2.0,1.879120879120879,532.1637426900585,0.3403065089447003,0.0737719247130118,0.1770293106462325,1247.6190476190475,-1.0,66.38125464244716,1.878559023090634,
2023-08-10 11:44:32.046000,-4.9397590361445785,-2.3012048192771086,8.108433734939759,-2.160637645616186,-4.863887185775598,8.78969957081545,2.0,1.879120879120879,532.1637426900585,0.047316589942311596,-0.13950236000233027,0.051395606316648246,1244.6886446886447,-1.0,66.38125464244716,1.8786204891068863,
2023-08-10 11:44:32.053000,-4.927710843373494,-2.3012048192771086,8.084337349397591,-2.1557326793378295,-4.856529736358063,8.770079705702022,2.0,1.879120879120879,532.1637426900585,8.15803274867591E-4,0.22935726356272876,-0.13157741390361866,1241.0256410256409,-1.0,66.38125464244716,1.8786810785970551,
2023-08-10 11:44:32.061000,-4.9156626506024095,-2.325301204819277,8.084337349397591,-2.1729000613120784,-4.893316983445739,8.762722256284487,2.0,1.879120879120879,532.1637426900585,-0.07621933453761458,-0.21409008799020968,-0.14824310937591037,1239.5604395604396,-1.0,66.38125464244716,1.8787408221792967,
2023-08-10 11:44:32.069000,-4.9156626506024095,-2.313253012048193,8.132530120481928,-2.165542611894543,-4.912936848559166,8.762722256284487,2.0,1.879120879120879,532.1637426900585,-0.05990326904026623,0.184954256744945,-0.2851815162286579,1238.8278388278388,-1.0,66.38125464244716,1.8787997482220042,
2023-08-10 11:44:32.076000,-4.891566265060241,-2.313253012048193,8.096385542168676,-2.1385652973635807,-4.925199264255058,8.738197424892704,2.0,1.879120879120879,532.1637426900585,0.09183614008507618,0.319911427073014,0.05337684284132637,1241.7582417582416,-1.0,66.38125464244716,1.8788578823557274,
2023-08-10 11:44:32.084000,-4.9397590361445785,-2.325301204819277,8.108433734939759,-2.209687308399755,-4.868792152053954,8.770079705702022,2.0,1.8776556776556776,532.5790089738588,0.0451022667676705,0.25383136180875304,-0.11526134840626986,1247.6190476190475,-1.0,66.38125464244716,1.8789152475166842,
2023-08-10 11:44:32.092000,-4.9397590361445785,-2.325301204819277,8.096385542168676,-2.239117106069896,-4.993868792152053,8.760269773145309,2.0,1.879120879120879,532.1637426900585,-0.01503408892255741,0.4794592389720881,0.13402482372822097,1253.4798534798533,-1.0,66.38125464244716,1.8789718639249835,
2023-08-10 11:44:32.099000,-4.903614457831326,-2.325301204819277,8.084337349397591,-2.1704475781729,-4.939914163090129,8.7725321888412,2.0,1.8776556776556776,532.5790089738588,0.016316065497348348,0.35300973136763575,-0.08088106753685671,1257.8754578754579,-1.0,66.38125464244716,1.879027749490053,
2023-08-10 11:44:32.107000,-4.9156626506024095,-2.3012048192771086,8.096385542168676,-2.158185162477008,-4.898221949724095,8.708767627222562,2.0,1.879120879120879,532.1637426900585,0.32154303362274916,-0.03158324106986743,-0.11129887535691405,1262.2710622710622,-1.0,66.38125464244716,1.8790829193760548,
2023-08-10 11:44:32.115000,-4.903614457831326,-2.3012048192771086,8.084337349397591,-2.182709993868792,-4.93746167995095,8.755364806866952,2.0,1.879120879120879,532.1637426900585,0.2425266592855893,-0.15348755900005842,-0.1715517743721228,1263.7362637362637,-1.0,66.38125464244716,1.8791373860289,
2023-08-10 11:44:32.122000,-4.9397590361445785,-2.3012048192771086,8.096385542168676,-2.106683016554261,-4.885959534028204,8.721030042918455,2.0,1.8776556776556776,532.5790089738588,-0.06468154536448921,0.10733640230755867,0.07225686148825833,1264.4688644688645,-1.0,66.38125464244716,1.8791911601924198,
2023-08-10 11:44:32.130000,-4.927710843373494,-2.289156626506024,8.120481927710843,-2.1263028816676885,-4.878602084610668,8.80441446965052,2.0,1.8776556776556776,532.5790089738588,0.11817493153079728,0.014218285647689819,0.07214031816327705,1265.2014652014652,-1.0,66.38125464244716,1.87924424996277,
2023-08-10 11:44:32.138000,-4.927710843373494,-2.289156626506024,8.072289156626507,-2.1704475781729,-4.92274678111588,8.767627222562844,2.0,1.8776556776556776,532.5790089738588,0.11747567158091053,0.060136355690227905,-0.004894819649204678,1264.4688644688645,-1.0,66.38125464244716,1.879296660269711,
2023-08-10 11:44:32.145000,-4.9156626506024095,-2.325301204819277,8.072289156626507,-2.141017780502759,-4.93746167995095,8.718577559779275,2.0,1.8776556776556776,532.5790089738588,-0.2501019754093576,0.012470135772973802,-0.38960433541168915,1263.7362637362637,-1.0,66.38125464244716,1.87934839341368,
2023-08-10 11:44:32.153000,-4.927710843373494,-2.325301204819277,8.096385542168676,-2.1704475781729,-4.925199264255058,8.765174739423665,2.0,1.8776556776556776,532.5790089738588,-0.10990035545714054,-0.30860672454985205,-0.20523279529164962,1263.003663003663,-1.0,66.38125464244716,1.879399449571457,
2023-08-10 11:44:32.161000,-4.903614457831326,-2.3373493975903616,8.096385542168676,-2.1459227467811157,-4.92274678111588,8.824034334763947,2.0,1.8776556776556776,532.5790089738588,-0.5512499271604222,-0.3100052444496238,-0.03764349396888308,1260.8058608058607,-1.0,66.38125464244716,1.8794498263570945,
2023-08-10 11:44:32.168000,-4.9397590361445785,-2.3493975903614457,8.096385542168676,-2.1434702636419374,-4.912936848559166,8.718577559779275,2.0,1.8776556776556776,532.5790089738588,-0.19637550259308956,-0.31035487442456805,-0.20301847211700938,1257.142857142857,-1.0,66.38125464244716,1.879499518913579,
2023-08-10 11:44:32.176000,-4.927710843373494,-2.325301204819277,8.048192771084338,-2.219497240956468,-4.964438994481912,8.784794604537094,2.0,1.8761904761904762,532.994923857868,-0.17656313734630918,-0.2963696754268399,0.11782530155585347,1250.5494505494505,-1.0,66.38125464244716,1.879548519973161,
2023-08-10 11:44:32.184000,-4.9397590361445785,-2.3373493975903616,8.084337349397591,-2.1459227467811157,-4.952176578786021,8.701410177805027,2.0,1.8761904761904762,532.994923857868,-0.052561039566459654,-0.6947147602121095,0.011304702523162832,1243.956043956044,-1.0,66.38125464244716,1.8795968199212194,
2023-08-10 11:44:32.191000,-4.9397590361445785,-2.313253012048193,8.084337349397591,-2.1949724095646843,-4.92274678111588,8.713672593500918,2.0,1.8761904761904762,532.994923857868,0.025173358195909275,-0.5247945923897203,0.11759221490589136,1237.3626373626373,-1.0,66.38125464244716,1.8796444067243971,
2023-08-10 11:44:32.199000,-4.927710843373494,-2.289156626506024,8.096385542168676,-2.1704475781729,-4.910484365419988,8.811771919068056,2.0,1.8761904761904762,532.994923857868,0.3911193986364439,-0.37188975001456775,-0.09999417283375078,1232.967032967033,942.169189453125,63.68282965698183,1.879691265542831,
2023-08-10 11:44:32.207000,-4.9156626506024095,-2.3012048192771086,8.144578313253012,-2.165542611894543,-4.927651747394236,8.81912936848559,2.0,1.8761904761904762,532.994923857868,0.06374919876464077,-0.21968416758930198,0.09777984965911098,1230.7692307692307,-1.0,63.68282965698183,1.879737379328063,
2023-08-10 11:44:32.214000,-4.903614457831326,-2.3012048192771086,8.156626506024097,-2.207234825260576,-4.976701410177805,8.801961986511342,2.0,1.8776556776556776,532.5790089738588,0.13577297360293658,0.06876056173882716,0.4161762135073715,1229.3040293040292,-1.0,63.68282965698183,1.8797827293545404,
2023-08-10 11:44:32.222000,-4.903614457831326,-2.289156626506024,8.108433734939759,-2.219497240956468,-4.96934396076027,8.765174739423665,2.0,1.8761904761904762,532.994923857868,0.010372355923315273,0.029835091195151413,-0.2601247013577299,1230.03663003663,-1.0,63.68282965698183,1.879827295298808,
2023-08-10 11:44:32.230000,-4.927710843373494,-2.325301204819277,8.132530120481928,-2.1508277130594724,-4.957081545064377,8.782342121397916,2.0,1.8761904761904762,532.994923857868,-0.3573218343919354,0.665695472291824,0.291008682477711,1232.967032967033,-1.0,63.68282965698183,1.8798710549360698,
2023-08-10 11:44:32.237000,-4.903614457831326,-2.313253012048193,8.108433734939759,-2.2023298589822193,-4.939914163090129,8.733292458614347,2.0,1.8761904761904762,532.994923857868,-0.09521589650952737,0.9477303187459932,0.18087524037060793,1241.0256410256409,-1.0,63.68282965698183,1.8799139841590526,
2023-08-10 11:44:32.245000,-4.927710843373494,-2.313253012048193,8.096385542168676,-2.2047823421213977,-4.900674432863274,8.762722256284487,2.0,1.8761904761904762,532.994923857868,-0.2336693665870284,0.6773498047899302,0.17959326379581614,1254.212454212454,-1.0,63.68282965698183,1.8799560574928051,
2023-08-10 11:44:32.253000,-4.9156626506024095,-2.325301204819277,8.084337349397591,-2.219497240956468,-4.883507050889025,8.735744941753525,2.0,1.8761904761904762,532.994923857868,0.1798263504457778,1.0225511333838362,0.10337392925820155,1271.062271062271,-1.0,63.68282965698183,1.8799972481570058,
2023-08-10 11:44:32.260000,-4.903614457831326,-2.313253012048193,8.072289156626507,-2.1949724095646843,-4.939914163090129,8.725935009196812,2.0,1.8761904761904762,532.994923857868,-0.0018646931996968547,0.6944816735621462,0.2862304061534876,1293.040293040293,-1.0,63.68282965698183,1.8800375281334218,
2023-08-10 11:44:32.268000,-4.867469879518072,-2.313253012048193,8.108433734939759,-2.187614960147149,-4.858982219497241,8.718577559779275,2.0,1.8761904761904762,532.994923857868,0.4298117825301563,0.705203659460404,-0.2807528698793774,1319.4139194139193,-1.0,63.68282965698183,1.8800768677803912,
2023-08-10 11:44:32.276000,-4.903614457831326,-2.313253012048193,8.072289156626507,-2.187614960147149,-4.871244635193133,8.71122011036174,2.0,1.8761904761904762,532.994923857868,0.5069634636676192,0.596119107278131,-0.049530913116951396,1350.18315018315,-1.0,63.68282965698183,1.8801152364349358,
2023-08-10 11:44:32.283000,-4.903614457831326,-2.3012048192771086,8.060240963855422,-2.128755364806867,-4.92274678111588,8.730839975475169,2.0,1.8761904761904762,532.994923857868,0.3981119981353063,0.9789639298409182,0.029368917895227633,1384.6153846153845,-1.0,63.68282965698183,1.8801526024573587,
2023-08-10 11:44:32.291000,-4.9397590361445785,-2.3012048192771086,8.072289156626507,-2.1974248927038627,-4.9448191293684856,8.718577559779275,2.0,1.8761904761904762,532.994923857868,0.0451022667676705,0.5693141425324866,0.04498572344268966,1421.9780219780218,-1.0,63.68282965698183,1.8801889328919035,
2023-08-10 11:44:32.299000,-4.9397590361445785,-2.325301204819277,8.060240963855422,-2.2047823421213977,-4.93746167995095,8.74310239117106,2.0,1.8761904761904762,532.994923857868,0.2714294038808923,0.28646349280344974,0.23227084668725617,1463.003663003663,-1.0,63.68282965698183,1.8802241940449955,
2023-08-10 11:44:32.306000,-4.9397590361445785,-2.3012048192771086,8.108433734939759,-2.111587982832618,-4.912936848559166,8.735744941753525,2.0,1.874725274725275,533.411488862837,-0.0510459763417053,-0.16490880484820297,0.20220266884214222,1507.6923076923076,-1.0,63.68282965698183,1.8802583515749398,
2023-08-10 11:44:32.314000,-4.9397590361445785,-2.3012048192771086,8.096385542168676,-2.212139791538933,-4.993868792152053,8.733292458614347,2.0,1.8761904761904762,532.994923857868,-0.05069634636676106,-0.15640114212458453,0.20127032224229335,1552.3809523809523,-1.0,63.68282965698183,1.880291370092771,
2023-08-10 11:44:32.322000,-4.9156626506024095,-2.325301204819277,8.132530120481928,-2.1508277130594724,-4.927651747394236,8.740649908031882,2.0,1.8761904761904762,532.994923857868,-0.05209486626653457,-0.6858574675135487,0.12237049123011477,1592.6739926739926,-1.0,63.68282965698183,1.8803232132218815,
2023-08-10 11:44:32.329000,-4.903614457831326,-2.325301204819277,8.096385542168676,-2.165542611894543,-4.942366646229307,8.713672593500918,2.0,1.874725274725275,533.411488862837,-0.09591515645941413,-0.7872501602470725,-0.2621059378824076,1627.106227106227,-1.0,63.68282965698183,1.8803538438320662,
2023-08-10 11:44:32.337000,-4.9156626506024095,-2.3012048192771086,8.108433734939759,-2.212139791538933,-4.920294297976701,8.779889638258737,2.0,1.874725274725275,533.411488862837,-0.12470135772973627,-0.6905192005127908,0.05827166249053105,1656.4102564102564,-1.0,63.68282965698183,1.880383224662743,
2023-08-10 11:44:32.345000,-4.9156626506024095,-2.3012048192771086,8.084337349397591,-2.2342121397915387,-4.915389331698345,8.787247087676272,2.0,1.874725274725275,533.411488862837,-0.01713186877221594,-0.8871277897558421,0.19404463609346762,1679.8534798534797,-1.0,63.68282965698183,1.8804113187058689,
2023-08-10 11:44:32.352000,-4.9156626506024095,-2.3012048192771086,8.108433734939759,-2.160637645616186,-4.927651747394236,8.765174739423665,2.0,1.874725274725275,533.411488862837,-0.2464891323349447,-0.5158207563661785,0.3293514363964804,1696.7032967032967,-1.0,63.68282965698183,1.8804380887818763,
2023-08-10 11:44:32.360000,-4.927710843373494,-2.289156626506024,8.108433734939759,-2.187614960147149,-4.942366646229307,8.71122011036174,2.0,1.874725274725275,533.411488862837,0.002214323174639364,-0.24206048598566596,0.08088106753685671,1706.9597069597069,-1.0,63.68282965698183,1.8804634971863738,
2023-08-10 11:44:32.368000,-4.9397590361445785,-2.3012048192771086,8.132530120481928,-2.1729000613120784,-4.908031882280809,8.748007357449417,2.0,1.874725274725275,533.411488862837,0.20092069226735085,-0.01876347532195112,0.06677932521414817,1708.4249084249084,-1.0,63.68282965698183,1.8804875058627684,
2023-08-10 11:44:32.375000,-4.927710843373494,-2.313253012048193,8.084337349397591,-2.1140404659717964,-4.952176578786021,8.716125076640097,2.0,1.874725274725275,533.411488862837,0.18332265019520982,-0.6807295612143814,-0.22189849076394133,1702.5641025641025,-1.0,63.68282965698183,1.8805100765386216,
2023-08-10 11:44:32.383000,-4.9156626506024095,-2.313253012048193,8.072289156626507,-2.1679950950337217,-4.903126916002452,8.797057020232986,2.0,1.874725274725275,533.411488862837,-0.032865217644660105,-0.4835382553464243,0.07144105821339074,1690.8424908424906,-1.0,63.68282965698183,1.880531170895212,
2023-08-10 11:44:32.390000,-4.927710843373494,-2.3012048192771086,8.108433734939759,-2.1704475781729,-4.9816063764561616,8.792152053954629,2.0,1.874725274725275,533.411488862837,0.13344210710331636,-0.4984558009440009,-0.09638132975933791,1674.7252747252746,-1.0,63.68282965698183,1.8805507511586734,
2023-08-10 11:44:32.398000,-4.9397590361445785,-2.3012048192771086,8.072289156626507,-2.1704475781729,-4.925199264255058,8.801961986511342,2.0,1.874725274725275,533.411488862837,-0.31210302429928405,-0.2096614416409292,-0.14078433657712253,1658.6080586080584,-1.0,63.68282965698183,1.8805687801992077,
2023-08-10 11:44:32.406000,-4.927710843373494,-2.289156626506024,8.084337349397591,-2.207234825260576,-4.925199264255058,8.767627222562844,2.0,1.874725274725275,533.411488862837,-0.08274576073655357,0.07843365771225394,-0.23052269681254017,1639.5604395604394,-1.0,63.68282965698183,1.8805852216307195,
2023-08-10 11:44:32.413000,-4.9156626506024095,-2.3012048192771086,8.084337349397591,-2.148375229920294,-4.961986511342734,8.752912323727774,2.0,1.874725274725275,533.411488862837,-0.18973253306916799,-0.0749373579628219,0.0032632130994699297,1624.1758241758241,-1.0,63.68282965698183,1.8806000399105434,
2023-08-10 11:44:32.421000,-4.927710843373494,-2.289156626506024,8.084337349397591,-2.1974248927038627,-4.947271612507664,8.7725321888412,2.0,1.874725274725275,533.411488862837,-0.01934619194685704,-0.22900763358778625,-0.011770875823087047,1610.989010989011,-1.0,63.68282965698183,1.8806132004389122,
2023-08-10 11:44:32.429000,-4.9397590361445785,-2.289156626506024,8.060240963855422,-2.1091354996934393,-4.927651747394236,8.701410177805027,2.0,1.873260073260073,533.8287055142746,0.17796165724608096,-0.2743429870054184,-0.19486043936833522,1597.069597069597,-1.0,63.68282965698183,1.8806246696578324,
2023-08-10 11:44:32.436000,-4.927710843373494,-2.27710843373494,8.036144578313253,-2.160637645616186,-4.9448191293684856,8.745554874310239,2.0,1.874725274725275,533.411488862837,-0.06934327836373134,-0.3173474739234304,-0.008857292698560493,1583.150183150183,-1.0,63.68282965698183,1.8806344141984972,
2023-08-10 11:44:32.444000,-4.9156626506024095,-2.289156626506024,8.060240963855422,-2.2366646229307174,-4.93746167995095,8.78969957081545,2.0,1.873260073260073,533.8287055142746,0.3445020686440191,-0.4803915855719365,-0.00850766272361755,1569.230769230769,-1.0,63.68282965698183,1.8806424014657008,
2023-08-10 11:44:32.452000,-4.9156626506024095,-2.27710843373494,8.072289156626507,-2.1336603310852236,-4.885959534028204,8.730839975475169,2.0,1.873260073260073,533.8287055142746,0.08192995746168598,-1.0699842666511268,-0.2390303595361577,1558.974358974359,-1.0,63.68282965698183,1.8806486002531329,
2023-08-10 11:44:32.459000,-4.9156626506024095,-2.313253012048193,8.084337349397591,-2.12385039852851,-4.925199264255058,8.716125076640097,2.0,1.873260073260073,533.8287055142746,0.2943884389021622,-1.2561039566458836,-0.328419089796632,1553.113553113553,-1.0,63.68282965698183,1.8806529803022265,
2023-08-10 11:44:32.467000,-4.9156626506024095,-2.313253012048193,8.096385542168676,-2.2366646229307174,-4.868792152053954,8.784794604537094,2.0,1.873260073260073,533.8287055142746,-0.16665695472291897,-1.412038925470543,-0.035196084144280736,1549.4505494505493,-1.0,63.68282965698183,1.8806555128418216,
2023-08-10 11:44:32.475000,-4.903614457831326,-2.325301204819277,8.096385542168676,-2.2145922746781115,-4.920294297976701,8.750459840588595,2.0,1.874725274725275,533.411488862837,-0.41023250393333754,-1.7800827457607362,-0.49332789464483406,1546.5201465201465,-1.0,63.68282965698183,1.8806561706674485,
2023-08-10 11:44:32.482000,-4.903614457831326,-2.313253012048193,8.096385542168676,-2.2145922746781115,-4.89086450030656,8.799509503372164,2.0,1.8717948717948718,534.2465753424658,0.051395606316647816,-2.036478060719073,-0.428879435930307,1539.9267399267399,-1.0,63.68282965698183,1.8806549287105285,
2023-08-10 11:44:32.490000,-4.891566265060241,-2.325301204819277,8.108433734939759,-2.180257510729614,-4.925199264255058,8.767627222562844,2.0,1.8717948717948718,534.2465753424658,-0.13169395722860036,-1.7716916263621005,-0.166423868072956,1533.3333333333333,-1.0,63.68282965698183,1.8806517631986905,
2023-08-10 11:44:32.498000,-4.891566265060241,-2.313253012048193,8.096385542168676,-2.158185162477008,-4.952176578786021,8.787247087676272,2.0,1.873260073260073,533.8287055142746,-0.09929491288386533,-2.1551191655497934,-0.4549851407260651,1526.007326007326,-1.0,63.68282965698183,1.8806466511292619,
2023-08-10 11:44:32.505000,-4.891566265060241,-2.3012048192771086,8.108433734939759,-2.1974248927038627,-4.822194972409564,8.779889638258737,2.0,1.873260073260073,533.8287055142746,-0.019462735271837873,-2.030068177845113,-0.34391935201911317,1519.4139194139193,-1.0,63.68282965698183,1.880639571739325,
2023-08-10 11:44:32.513000,-4.903614457831326,-2.27710843373494,8.144578313253012,-2.165542611894543,-4.898221949724095,8.797057020232986,2.0,1.8717948717948718,534.2465753424658,-0.051861779616572894,-1.632305809684751,-0.18845055649437661,1513.5531135531135,-1.0,63.68282965698183,1.880630506635123,
2023-08-10 11:44:32.521000,-4.9156626506024095,-2.3012048192771086,8.132530120481928,-2.1851624770079705,-4.917841814837523,8.824034334763947,2.0,1.873260073260073,533.8287055142746,-0.25068469203426347,-1.143872734689121,0.010721985898257782,1509.1575091575091,-1.0,63.68282965698183,1.8806194388996664,
2023-08-10 11:44:32.528000,-4.9397590361445785,-2.3012048192771086,8.132530120481928,-2.1704475781729,-4.910484365419988,8.814224402207234,2.0,1.8717948717948718,534.2465753424658,-0.43330808227958656,-0.5707126624322584,-0.1254006176796226,1502.5641025641025,-1.0,63.68282965698183,1.880606353567157,
2023-08-10 11:44:32.536000,-4.9397590361445785,-2.313253012048193,8.144578313253012,-2.1925199264255055,-4.939914163090129,8.83874923359902,2.0,1.873260073260073,533.8287055142746,-0.5968183672280177,-0.45987996037526935,0.028086941320435828,1494.5054945054944,-1.0,63.68282965698183,1.8805912372464981,
2023-08-10 11:44:32.544000,-4.9397590361445785,-2.313253012048193,8.120481927710843,-2.177805027590435,-4.932556713672593,8.774984671980379,2.0,1.873260073260073,533.8287055142746,-0.623273701998718,-0.18623623331973768,-0.3392576190198706,1487.179487179487,-1.0,63.68282965698183,1.8805740781955602,
2023-08-10 11:44:32.551000,-4.927710843373494,-2.313253012048193,8.132530120481928,-2.0968730839975476,-4.949724095646842,8.816676885346412,2.0,1.873260073260073,533.8287055142746,-0.2954373288269915,0.0867082337859107,-0.0916030534351145,1477.6556776556777,-1.0,63.68282965698183,1.8805548673737786,
2023-08-10 11:44:32.559000,-4.927710843373494,-2.313253012048193,8.132530120481928,-2.2317596566523603,-4.873697118332311,8.779889638258737,2.0,1.873260073260073,533.8287055142746,-0.6264203717732075,0.2646698910319916,-0.1075694889575199,1470.3296703296703,-1.0,63.68282965698183,1.8805335984728522,
2023-08-10 11:44:32.567000,-4.9156626506024095,-2.313253012048193,8.144578313253012,-2.2317596566523603,-4.910484365419988,8.833844267320663,2.0,1.8717948717948718,534.2465753424658,-0.37701765631373496,0.5802692150807061,-0.03426373754443231,1464.4688644688645,-1.0,63.68282965698183,1.8805102674180947,
2023-08-10 11:44:32.574000,-4.9156626506024095,-2.325301204819277,8.144578313253012,-2.1753525444512567,-4.9816063764561616,8.792152053954629,2.0,1.8717948717948718,534.2465753424658,-0.61802925237457,0.5884272478293802,0.28646349280344974,1458.6080586080584,-1.0,63.68282965698183,1.8804848714768228,
2023-08-10 11:44:32.582000,-4.903614457831326,-2.313253012048193,8.144578313253012,-2.1851624770079705,-4.873697118332311,8.846106683016554,2.0,1.8717948717948718,534.2465753424658,-0.5071965503175809,0.5682652526076573,-0.021560515121496402,1452.014652014652,-1.0,63.68282965698183,1.8804574096959956,
2023-08-10 11:44:32.590000,-4.879518072289157,-2.3012048192771086,8.156626506024097,-2.160637645616186,-4.90557939914163,8.765174739423665,2.0,1.8717948717948718,534.2465753424658,-0.5049822271429398,0.5623215430336225,-0.022143231746401888,1444.6886446886447,-1.0,63.68282965698183,1.8804278833672423,
2023-08-10 11:44:32.597000,-4.879518072289157,-2.325301204819277,8.108433734939759,-2.1140404659717964,-4.854077253218884,8.7725321888412,2.0,1.8717948717948718,534.2465753424658,-0.18134141367053214,0.8033331390944591,-0.2043004486918012,1438.095238095238,-1.0,63.68282965698183,1.8803962960289433,
2023-08-10 11:44:32.605000,-4.903614457831326,-2.3493975903614457,8.144578313253012,-2.212139791538933,-4.932556713672593,8.779889638258737,2.0,1.8717948717948718,534.2465753424658,-0.22644368043820265,1.4271895577180813,-0.03309830429462134,1434.4322344322343,-1.0,63.68282965698183,1.8803626534632256,
2023-08-10 11:44:32.613000,-4.891566265060241,-2.3493975903614457,8.144578313253012,-2.1949724095646843,-4.856529736358063,8.78969957081545,2.0,1.8717948717948718,534.2465753424658,-0.36338208729095106,1.3155410523862248,-0.04580152671755725,1432.9670329670328,-1.0,63.68282965698183,1.880326963687897,
2023-08-10 11:44:32.620000,-4.891566265060241,-2.325301204819277,8.108433734939759,-2.190067443286327,-4.858982219497241,8.865726548129981,2.0,1.8717948717948718,534.2465753424658,-0.1637433715983911,1.3095973428121899,0.07924946098712198,1430.7692307692307,-1.0,63.68282965698183,1.8802892369433628,
2023-08-10 11:44:32.628000,-4.903614457831326,-2.3373493975903616,8.096385542168676,-2.1729000613120784,-4.858982219497241,8.801961986511342,2.0,1.8717948717948718,534.2465753424658,-0.13250976050346794,1.3510867665054476,0.27737311345492666,1429.3040293040292,-1.0,63.68282965698183,1.8802494856745824,
2023-08-10 11:44:32.636000,-4.903614457831326,-2.3373493975903616,8.096385542168676,-2.180257510729614,-4.910484365419988,8.770079705702022,2.0,1.8703296703296706,534.6650998824912,-0.2980012819765751,1.45550958568848,0.24567332906007797,1427.8388278388277,-1.0,63.68282965698183,1.8802077245081399,
2023-08-10 11:44:32.643000,-4.927710843373494,-2.3373493975903616,8.084337349397591,-2.12385039852851,-4.903126916002452,8.684242795830778,2.0,1.8703296703296706,534.6650998824912,-0.2200337975642445,1.3274284715342926,0.3190956237981468,1427.8388278388277,-1.0,63.68282965698183,1.880163970189744,
2023-08-10 11:44:32.651000,-4.867469879518072,-2.3373493975903616,8.084337349397591,-2.1630901287553645,-4.925199264255058,8.703862660944205,2.0,1.8717948717948718,534.2465753424658,-0.20243575549210346,1.0910786084726998,0.3778334595886021,1427.8388278388277,-1.0,63.68282965698183,1.8801182409545267,
2023-08-10 11:44:32.659000,-4.891566265060241,-2.325301204819277,8.060240963855422,-2.239117106069896,-4.90557939914163,8.740649908031882,2.0,1.8703296703296706,534.6650998824912,0.19695821921799375,0.5653516694831312,0.3468329351436397,1429.3040293040292,-1.0,63.68282965698183,1.8800705570139877,
2023-08-10 11:44:32.666000,-4.927710843373494,-2.325301204819277,8.084337349397591,-2.1630901287553645,-4.927651747394236,8.723482526057634,2.0,1.8703296703296706,534.6650998824912,-0.3675776469902681,0.3759687663889057,0.265951867606783,1430.7692307692307,-1.0,63.68282965698183,1.8800209405800583,
2023-08-10 11:44:32.674000,-4.9156626506024095,-2.325301204819277,8.084337349397591,-2.1729000613120784,-4.915389331698345,8.721030042918455,2.0,1.8717948717948718,534.2465753424658,-0.3793485228133551,0.11153196200687572,0.15675077209952792,1430.7692307692307,-1.0,63.68282965698183,1.879969415287684,
2023-08-10 11:44:32.682000,-4.9156626506024095,-2.325301204819277,8.096385542168676,-2.1213979153893314,-4.893316983445739,8.718577559779275,2.0,1.8703296703296706,534.6650998824912,-0.3917021152613481,-0.39554804498572266,0.23250393333721828,1427.106227106227,-1.0,63.68282965698183,1.879916007088482,
2023-08-10 11:44:32.689000,-4.927710843373494,-2.313253012048193,8.120481927710843,-2.239117106069896,-4.957081545064377,8.740649908031882,2.0,1.8703296703296706,534.6650998824912,-0.03496299749431863,-0.5182681661907812,-0.011770875823087047,1424.9084249084249,-1.0,63.68282965698183,1.8798607437690287,
2023-08-10 11:44:32.697000,-4.927710843373494,-2.3012048192771086,8.084337349397591,-2.2145922746781115,-4.942366646229307,8.730839975475169,2.0,1.8703296703296706,534.6650998824912,-0.38552531903735165,-1.0084493910611272,0.20325155876697149,1421.9780219780218,-1.0,63.68282965698183,1.8798036543610384,
2023-08-10 11:44:32.705000,-4.927710843373494,-2.325301204819277,8.096385542168676,-2.229307173513182,-4.976701410177805,8.721030042918455,2.0,1.8703296703296706,534.6650998824912,-0.19812365246780558,-0.7909795466464662,0.11106578870695194,1418.3150183150183,-1.0,63.68282965698183,1.8797447695307021,
2023-08-10 11:44:32.712000,-4.9156626506024095,-2.325301204819277,8.096385542168676,-2.1704475781729,-4.949724095646842,8.809319435928877,2.0,1.8703296703296706,534.6650998824912,-0.18297302022026732,-0.6349280344968242,0.17271720762193332,1413.1868131868132,-1.0,63.68282965698183,1.879684121506605,
2023-08-10 11:44:32.720000,-4.903614457831326,-2.3493975903614457,8.132530120481928,-2.1753525444512567,-4.881054567749846,8.794604537093807,2.0,1.8703296703296706,534.6650998824912,-0.25674494493327915,-0.7677874249752347,-0.039624730493560766,1407.3260073260071,-1.0,63.68282965698183,1.8796217440044083,
2023-08-10 11:44:32.728000,-4.927710843373494,-2.3493975903614457,8.120481927710843,-2.212139791538933,-4.935009196811771,8.738197424892704,2.0,1.8703296703296706,534.6650998824912,-0.17772857059611927,-0.21490589126507728,0.23611677641163117,1398.5347985347985,-1.0,63.68282965698183,1.8795576721485983,
2023-08-10 11:44:32.735000,-4.891566265060241,-2.3373493975903616,8.144578313253012,-2.219497240956468,-4.930104230533415,8.799509503372164,2.0,1.8703296703296706,534.6650998824912,-0.1769127673212517,0.07691859448750134,-0.009789639298409356,1388.278388278388,-1.0,63.68282965698183,1.8794919423916459,
2023-08-10 11:44:32.743000,-4.927710843373494,-2.325301204819277,8.108433734939759,-2.1729000613120784,-4.942366646229307,8.799509503372164,2.0,1.8688644688644687,535.0842806742454,-0.02214323174640232,0.3491638016432612,0.03624497406911,1378.021978021978,-1.0,63.68282965698183,1.8794245924309139,
2023-08-10 11:44:32.751000,-4.9397590361445785,-2.325301204819277,8.096385542168676,-2.2317596566523603,-4.917841814837523,8.843654199877376,2.0,1.8703296703296706,534.6650998824912,0.4208379465066145,0.5616222830837357,-0.05687314259075798,1367.032967032967,-1.0,63.68282965698183,1.8793556606309887,
2023-08-10 11:44:32.758000,-4.927710843373494,-2.313253012048193,8.108433734939759,-2.1630901287553645,-4.991416309012875,8.74310239117106,2.0,1.8703296703296706,534.6650998824912,0.17504807412155482,0.7281626944816738,-0.02633879144571981,1356.0439560439559,-1.0,63.68282965698183,1.8792851858997557,
2023-08-10 11:44:32.766000,-4.9397590361445785,-2.313253012048193,8.108433734939759,-2.141017780502759,-4.947271612507664,8.80441446965052,2.0,1.8703296703296706,534.6650998824912,0.35825418099178385,0.7703513781248182,0.29357263562729463,1346.5201465201465,-1.0,63.68282965698183,1.8792132081924184,
2023-08-10 11:44:32.773000,-4.927710843373494,-2.325301204819277,8.108433734939759,-2.160637645616186,-4.947271612507664,8.760269773145309,2.0,1.8688644688644687,535.0842806742454,0.26525260765689584,0.7663889050754611,-0.21339082804032378,1337.7289377289376,-1.0,63.68282965698183,1.8791397684528661,
2023-08-10 11:44:32.781000,-4.903614457831326,-2.325301204819277,8.108433734939759,-2.190067443286327,-4.949724095646842,8.698957694665848,2.0,1.8703296703296706,534.6650998824912,0.20290192879202854,0.6247887652234723,0.09230231338500082,1333.3333333333333,-1.0,63.68282965698183,1.8790649080277997,
2023-08-10 11:44:32.789000,-4.9156626506024095,-2.313253012048193,8.132530120481928,-2.1851624770079705,-4.876149601471489,8.784794604537094,2.0,1.8688644688644687,535.0842806742454,0.32375735679739026,0.8211642678165602,0.04626770001748146,1329.6703296703297,-1.0,63.68282965698183,1.8789886694524944,
2023-08-10 11:44:32.796000,-4.9156626506024095,-2.313253012048193,8.132530120481928,-2.2268546903740036,-4.98405885959534,8.694052728387492,2.0,1.8688644688644687,535.0842806742454,0.16852164792261584,1.1223122195676247,-0.12027271138045581,1328.2051282051282,-1.0,63.68282965698183,1.8789110963237423,
2023-08-10 11:44:32.804000,-4.927710843373494,-2.3012048192771086,8.108433734939759,-2.1704475781729,-4.9742489270386265,8.730839975475169,2.0,1.8688644688644687,535.0842806742454,0.36687838704038306,0.6289843249227893,0.1545364489248877,1326.007326007326,-1.0,63.68282965698183,1.878832232190503,
2023-08-10 11:44:32.812000,-4.9156626506024095,-2.325301204819277,8.132530120481928,-2.1851624770079705,-4.89086450030656,8.794604537093807,2.0,1.8688644688644687,535.0842806742454,0.36338208729095106,1.0365363323815624,0.06025289901520874,1326.007326007326,-1.0,63.68282965698183,1.8787521204627522,
2023-08-10 11:44:32.819000,-4.927710843373494,-2.3012048192771086,8.132530120481928,-2.1434702636419374,-4.92274678111588,8.74310239117106,2.0,1.8688644688644687,535.0842806742454,0.28401608297884695,0.8746576539828682,-0.19998834566750198,1324.5421245421244,-1.0,63.68282965698183,1.878670804388334,
2023-08-10 11:44:32.827000,-4.927710843373494,-2.325301204819277,8.096385542168676,-2.1508277130594724,-4.932556713672593,8.725935009196812,2.0,1.8688644688644687,535.0842806742454,0.478993065672163,0.8350329234893075,0.01643260882232962,1320.8791208791208,-1.0,63.68282965698183,1.8785883279099174,
2023-08-10 11:44:32.835000,-4.903614457831326,-2.289156626506024,8.108433734939759,-2.2023298589822193,-4.9448191293684856,8.760269773145309,2.0,1.8688644688644687,535.0842806742454,0.7817726239729628,0.6749023949653274,-0.3208437736728629,1317.216117216117,-1.0,63.68282965698183,1.8785047350483834,
2023-08-10 11:44:32.842000,-4.903614457831326,-2.289156626506024,8.108433734939759,-2.165542611894543,-4.876149601471489,8.750459840588595,2.0,1.8688644688644687,535.0842806742454,0.6673270788415592,0.5316706485636035,0.0029135831245265527,1312.8205128205127,-1.0,63.68282965698183,1.8784200693926536,
2023-08-10 11:44:32.850000,-4.927710843373494,-2.289156626506024,8.108433734939759,-2.1753525444512567,-4.9668914776210915,8.740649908031882,2.0,1.8688644688644687,535.0842806742454,0.6464658236699495,0.315133150748791,-0.21105996154070272,1310.6227106227104,-1.0,63.68282965698183,1.878334374505421,
2023-08-10 11:44:32.858000,-4.9156626506024095,-2.2650602409638556,8.108433734939759,-2.1042305334150826,-4.971796443899448,8.733292458614347,2.0,1.8688644688644687,535.0842806742454,0.5194335994405913,0.2970689353767267,-0.438319445253773,1308.4249084249084,-1.0,63.68282965698183,1.8782476938392794,
2023-08-10 11:44:32.865000,-4.927710843373494,-2.27710843373494,8.072289156626507,-2.1434702636419374,-4.925199264255058,8.752912323727774,2.0,1.8688644688644687,535.0842806742454,0.5146553231163684,0.2959035021269148,-0.43447351552939795,1309.1575091575091,-1.0,63.68282965698183,1.8781600706562154,
2023-08-10 11:44:32.873000,-4.927710843373494,-2.27710843373494,8.084337349397591,-2.141017780502759,-4.92274678111588,8.767627222562844,2.0,1.8688644688644687,535.0842806742454,0.6027620768020509,0.12470135772973627,-0.46302663014975803,1309.89010989011,-1.0,63.68282965698183,1.8780715479507437,
2023-08-10 11:44:32.881000,-4.927710843373494,-2.289156626506024,8.060240963855422,-2.1434702636419374,-4.964438994481912,8.706315144083383,2.0,1.8688644688644687,535.0842806742454,0.3539420779674842,0.15208903910028493,-0.46116193695006114,1308.4249084249084,-1.0,63.68282965698183,1.877982168376932,
2023-08-10 11:44:32.888000,-4.9397590361445785,-2.289156626506024,8.096385542168676,-2.1336603310852236,-4.942366646229307,8.767627222562844,2.0,1.8673992673992672,535.5041192624559,0.24613950236000218,-0.5215313792902516,-0.625371481848377,1306.9597069597069,-1.0,63.68282965698183,1.8778919741795552,
2023-08-10 11:44:32.896000,-4.927710843373494,-2.289156626506024,8.120481927710843,-2.1630901287553645,-4.920294297976701,8.74310239117106,2.0,1.8673992673992672,535.5041192624559,0.44333080822795934,-0.7468096264786441,-0.4841209719713302,1304.7619047619046,-1.0,63.68282965698183,1.8778010066369188,
2023-08-10 11:44:32.904000,-4.903614457831326,-2.3012048192771086,8.084337349397591,-2.1729000613120784,-4.868792152053954,8.735744941753525,2.0,1.8673992673992672,535.5041192624559,0.11922382145562654,-1.0794242759745936,-0.587378357904551,1304.0293040293038,-1.0,63.68282965698183,1.8777093059286805,
2023-08-10 11:44:32.911000,-4.9156626506024095,-2.27710843373494,8.096385542168676,-2.1263028816676885,-4.90557939914163,8.735744941753525,2.0,1.8673992673992672,535.5041192624559,0.30161412505098795,-0.7490239496532836,-0.6292174115727523,1303.2967032967033,-1.0,63.68282965698183,1.8776169115328534,
2023-08-10 11:44:32.919000,-4.903614457831326,-2.289156626506024,8.108433734939759,-2.2047823421213977,-4.90557939914163,8.792152053954629,2.0,1.8673992673992672,535.5041192624559,0.40673620418390555,-1.0783753860497645,-0.45684983392576195,1301.8315018315018,-1.0,63.68282965698183,1.8775238617112764,
2023-08-10 11:44:32.927000,-4.891566265060241,-2.325301204819277,8.096385542168676,-2.1729000613120784,-4.908031882280809,8.694052728387492,2.0,1.8673992673992672,535.5041192624559,0.0078084027737316646,-0.6876056173882646,-0.4856360351960841,1298.168498168498,-1.0,63.68282965698183,1.8774301939824276,
2023-08-10 11:44:32.934000,-4.9156626506024095,-2.289156626506024,8.108433734939759,-2.1704475781729,-4.93746167995095,8.767627222562844,2.0,1.8673992673992672,535.5041192624559,0.14521298292640342,-0.9554221781947441,-0.36116776411631035,1293.7728937728937,-1.0,63.68282965698183,1.8773359450368396,
2023-08-10 11:44:32.942000,-4.903614457831326,-2.3012048192771086,8.132530120481928,-2.182709993868792,-4.939914163090129,8.716125076640097,2.0,1.865934065934066,535.924617196702,0.06852747508886375,-0.7459938232037766,-0.12749839752928155,1289.3772893772893,-1.0,63.68282965698183,1.8772411502690758,
2023-08-10 11:44:32.950000,-4.9156626506024095,-2.3012048192771086,8.120481927710843,-2.148375229920294,-4.903126916002452,8.767627222562844,2.0,1.865934065934066,535.924617196702,0.05209486626653457,-0.6001981236524673,-0.1885670998193579,1287.179487179487,-1.0,63.68282965698183,1.8771458441933477,
2023-08-10 11:44:32.957000,-4.9156626506024095,-2.3012048192771086,8.108433734939759,-2.1336603310852236,-4.952176578786021,8.752912323727774,2.0,1.865934065934066,535.924617196702,-0.10220849600839145,-0.4554513140259889,-0.5359827515879027,1287.179487179487,-1.0,63.68282965698183,1.8770500602671987,
2023-08-10 11:44:32.965000,-4.9397590361445785,-2.3012048192771086,8.120481927710843,-2.1851624770079705,-4.976701410177805,8.735744941753525,2.0,1.865934065934066,535.924617196702,-0.11817493153079728,-0.09673095973428172,-0.6694248586912186,1287.179487179487,-1.0,63.68282965698183,1.8769538308239393,
2023-08-10 11:44:32.973000,-4.975903614457832,-2.325301204819277,8.108433734939759,-2.160637645616186,-4.976701410177805,8.75781729000613,2.0,1.865934065934066,535.924617196702,-0.05687314259075754,-0.06281685216479235,-0.03577880076918579,1282.051282051282,-1.0,63.68282965698183,1.8768571865861636,
2023-08-10 11:44:32.980000,-4.963855421686747,-2.313253012048193,8.120481927710843,-2.1630901287553645,-4.952176578786021,8.779889638258737,2.0,1.865934065934066,535.924617196702,-0.16409300157333537,-0.5037002505681489,-0.5540469669599675,1271.7948717948716,-1.0,63.68282965698183,1.8767601567085512,
2023-08-10 11:44:32.988000,-4.963855421686747,-2.3373493975903616,8.120481927710843,-2.1704475781729,-4.961986511342734,8.792152053954629,2.0,1.865934065934066,535.924617196702,-0.13250976050346794,-0.7137113221840223,-0.4891323349455157,1260.07326007326,-1.0,63.68282965698183,1.8766627692459472,
2023-08-10 11:44:32.996000,-4.927710843373494,-2.3373493975903616,8.084337349397591,-2.182709993868792,-4.932556713672593,8.797057020232986,2.0,1.865934065934066,535.924617196702,0.08274576073655357,-0.6299166715226377,-0.48633529514597046,1251.2820512820513,-1.0,63.68282965698183,1.8765650515914631,
2023-08-10 11:44:33.003000,-4.9156626506024095,-2.3373493975903616,8.084337349397591,-2.1729000613120784,-4.920294297976701,8.755364806866952,2.0,1.865934065934066,535.924617196702,-0.16211176504865768,-0.6711730085659338,-0.3307499562962535,1246.153846153846,-1.0,63.68282965698183,1.8764670299363526,
2023-08-10 11:44:33.011000,-4.9156626506024095,-2.325301204819277,8.060240963855422,-2.1557326793378295,-4.961986511342734,8.787247087676272,2.0,1.865934065934066,535.924617196702,-0.12924654740399757,-0.6962298234368622,-0.2657187809568209,1244.6886446886447,-1.0,63.68282965698183,1.8763687292965057,
2023-08-10 11:44:33.019000,-4.903614457831326,-2.3012048192771086,8.084337349397591,-2.180257510729614,-4.947271612507664,8.706315144083383,2.0,1.865934065934066,535.924617196702,-0.0973136763591859,-0.20092069226735085,-0.24672221898490723,1244.6886446886447,-1.0,63.68282965698183,1.8762701734737872,
2023-08-10 11:44:33.026000,-4.879518072289157,-2.313253012048193,8.084337349397591,-2.209687308399755,-4.932556713672593,8.735744941753525,2.0,1.865934065934066,535.924617196702,0.10197540935842977,-0.5333022551133386,0.2590758114329002,1243.956043956044,-1.0,63.68282965698183,1.8761713846333052,
2023-08-10 11:44:33.034000,-4.891566265060241,-2.313253012048193,8.132530120481928,-2.2219497240956465,-4.910484365419988,8.814224402207234,2.0,1.865934065934066,535.924617196702,-0.15756657537439464,-0.3596527008915556,-0.029835091195151847,1244.6886446886447,-1.0,63.68282965698183,1.8760723837983793,
2023-08-10 11:44:33.042000,-4.903614457831326,-2.3373493975903616,8.120481927710843,-2.1508277130594724,-4.954629061925199,8.75781729000613,2.0,1.865934065934066,535.924617196702,-0.504865683817959,-0.41675893013227655,-0.21082687489074062,1246.8864468864467,-1.0,63.68282965698183,1.8759731908572603,
2023-08-10 11:44:33.049000,-4.927710843373494,-2.3373493975903616,8.108433734939759,-2.2366646229307174,-4.89086450030656,8.7725321888412,2.0,1.865934065934066,535.924617196702,-0.3304003263213101,-0.25965852805780526,-0.1308781539537323,1251.2820512820513,-1.0,63.68282965698183,1.8758738245742008,
2023-08-10 11:44:33.057000,-4.9156626506024095,-2.3493975903614457,8.132530120481928,-2.2342121397915387,-4.920294297976701,8.762722256284487,2.0,1.8644688644688645,536.3457760314342,-0.5411106578870704,-0.25802692150807005,-0.12878037410407336,1255.6776556776556,-1.0,63.68282965698183,1.875774303062603,
2023-08-10 11:44:33.065000,-4.9156626506024095,-2.36144578313253,8.108433734939759,-2.1925199264255055,-4.930104230533415,8.792152053954629,2.0,1.8644688644688645,536.3457760314342,-0.597867257152847,-0.07039216828856061,-0.387623098887011,1260.8058608058607,-1.0,63.68282965698183,1.8756746427865898,
2023-08-10 11:44:33.072000,-4.927710843373494,-2.3493975903614457,8.120481927710843,-2.160637645616186,-4.92274678111588,8.748007357449417,2.0,1.8644688644688645,536.3457760314342,-0.7616106287512382,0.02086125517160965,-0.20185303886719885,1268.131868131868,-1.0,63.68282965698183,1.875574858090999,
2023-08-10 11:44:33.080000,-4.879518072289157,-2.3373493975903616,8.084337349397591,-2.207234825260576,-4.851624770079705,8.745554874310239,2.0,1.8644688644688645,536.3457760314342,-0.35906998426665143,0.1602470718489591,-0.018530388671988578,1273.9926739926739,-1.0,63.68282965698183,1.8754749621727866,
2023-08-10 11:44:33.088000,-4.879518072289157,-2.3493975903614457,8.108433734939759,-2.165542611894543,-4.939914163090129,8.733292458614347,2.0,1.865934065934066,535.924617196702,-0.23320319328710504,0.5591748732591347,-0.1088514655323117,1277.6556776556777,-1.0,63.68282965698183,1.8753749671049063,
2023-08-10 11:44:33.095000,-4.891566265060241,-2.325301204819277,8.108433734939759,-2.190067443286327,-4.871244635193133,8.782342121397916,2.0,1.863003663003663,536.7675973259929,-0.24602295903502136,0.20651477186644143,0.0903210768603227,1278.3882783882782,-1.0,63.68282965698183,1.8752748843557232,
2023-08-10 11:44:33.103000,-4.879518072289157,-2.313253012048193,8.084337349397591,-2.2047823421213977,-4.92274678111588,8.755364806866952,2.0,1.863003663003663,536.7675973259929,-0.19812365246780558,0.2399627061360057,-0.04603461336751979,1279.8534798534797,-1.0,63.68282965698183,1.8751747243631889,
2023-08-10 11:44:33.111000,-4.9156626506024095,-2.313253012048193,8.108433734939759,-2.136112814224402,-4.888412017167382,8.848559166155733,2.0,1.8644688644688645,536.3457760314342,-0.07400501136297348,0.08903910028553089,2.3308664996254076E-4,1282.051282051282,-1.0,63.68282965698183,1.8750744954450833,
2023-08-10 11:44:33.118000,-4.891566265060241,-2.3012048192771086,8.108433734939759,-2.2047823421213977,-4.920294297976701,8.794604537093807,2.0,1.8644688644688645,536.3457760314342,-0.05535807936600493,-0.07889983101217903,0.09171959676009576,1283.5164835164835,-1.0,63.68282965698183,1.8749742048158096,
2023-08-10 11:44:33.126000,-4.867469879518072,-2.313253012048193,8.156626506024097,-2.180257510729614,-4.947271612507664,8.787247087676272,2.0,1.863003663003663,536.7675973259929,-0.43435697220441755,0.1962589592681087,-0.10803566225744456,1284.2490842490843,-1.0,63.68282965698183,1.874873859181767,
2023-08-10 11:44:33.134000,-4.891566265060241,-2.325301204819277,8.168674698795181,-2.219497240956468,-4.912936848559166,8.824034334763947,2.0,1.8644688644688645,536.3457760314342,-0.4310937591049472,0.1048889924829559,-0.2433424625604569,1282.7838827838827,-1.0,63.68282965698183,1.8747734638284124,
2023-08-10 11:44:33.141000,-4.891566265060241,-2.313253012048193,8.156626506024097,-2.187614960147149,-4.949724095646842,8.824034334763947,2.0,1.863003663003663,536.7675973259929,-0.4264320261057051,0.10512207913291756,-0.24019579278596825,1279.120879120879,-1.0,63.68282965698183,1.8746730230803648,
2023-08-10 11:44:33.149000,-4.879518072289157,-2.3493975903614457,8.108433734939759,-2.2636419374616796,-4.954629061925199,8.71122011036174,2.0,1.863003663003663,536.7675973259929,-0.7118466289843255,-0.13857001340248185,-0.22236466406386554,1272.5274725274724,-1.0,63.68282965698183,1.874572540374764,
2023-08-10 11:44:33.156000,-4.879518072289157,-2.36144578313253,8.120481927710843,-2.251379521765788,-4.925199264255058,8.83874923359902,2.0,1.8644688644688645,536.3457760314342,-0.5398286813122777,-0.02960200454518974,-0.4671056465240951,1268.131868131868,903.86962890625,66.38125464244716,1.8744720177738985,
2023-08-10 11:44:33.164000,-4.903614457831326,-2.3493975903614457,8.132530120481928,-2.2342121397915387,-4.858982219497241,8.740649908031882,2.0,1.863003663003663,536.7675973259929,-0.23063924013752143,0.2287745469378246,-0.3574383777169162,1265.2014652014652,-1.0,66.38125464244716,1.8743714569545482,
2023-08-10 11:44:33.172000,-4.879518072289157,-2.3373493975903616,8.144578313253012,-2.2244022072348253,-4.915389331698345,8.779889638258737,2.0,1.8644688644688645,536.3457760314342,-0.24777110890973736,0.027154594720586966,-0.09463317988462232,1262.2710622710622,-1.0,66.38125464244716,1.8742708588272559,
2023-08-10 11:44:33.179000,-4.855421686746988,-2.3373493975903616,8.156626506024097,-2.1729000613120784,-4.888412017167382,8.797057020232986,2.0,1.863003663003663,536.7675973259929,0.1653749781481263,0.33086649962123343,-0.5373812714876758,1257.8754578754579,-1.0,66.38125464244716,1.874170223087251,
2023-08-10 11:44:33.187000,-4.903614457831326,-2.3012048192771086,8.168674698795181,-2.1704475781729,-4.893316983445739,8.806866952789699,2.0,1.863003663003663,536.7675973259929,0.4991550608938876,1.0140434706602177,-0.2720121205057982,1253.4798534798533,-1.0,66.38125464244716,1.874069548818988,
2023-08-10 11:44:33.195000,-4.9156626506024095,-2.313253012048193,8.156626506024097,-2.207234825260576,-4.90557939914163,8.824034334763947,2.0,1.863003663003663,536.7675973259929,0.052677582891440485,1.4294038808927225,-0.10104306275858048,1249.8168498168498,-1.0,66.38125464244716,1.8739688339776255,
2023-08-10 11:44:33.202000,-4.891566265060241,-2.3012048192771086,8.132530120481928,-2.180257510729614,-4.871244635193133,8.765174739423665,2.0,1.863003663003663,536.7675973259929,-0.29823436862653674,1.8275158790280288,-0.0679447584639587,1251.2820512820513,-1.0,66.38125464244716,1.8738680754660901,
2023-08-10 11:44:33.210000,-4.9156626506024095,-2.313253012048193,8.132530120481928,-2.165542611894543,-4.979153893316983,8.821581851624769,2.0,1.863003663003663,536.7675973259929,-0.29252374570246537,1.9488374803333137,-0.14358137637666823,1255.6776556776556,-1.0,66.38125464244716,1.8737672696686212,
2023-08-10 11:44:33.218000,-4.879518072289157,-2.313253012048193,8.096385542168676,-2.106683016554261,-4.920294297976701,8.765174739423665,2.0,1.863003663003663,536.7675973259929,-0.289260532602995,1.9939397471009843,0.07295612143814509,1261.5384615384614,-1.0,66.38125464244716,1.8736664124927707,
2023-08-10 11:44:33.225000,-4.9156626506024095,-2.325301204819277,8.108433734939759,-2.1704475781729,-4.942366646229307,8.782342121397916,2.0,1.863003663003663,536.7675973259929,0.08099761086183756,1.9797214614532945,0.1223704912301152,1273.9926739926739,-1.0,66.38125464244716,1.873565499412505,
2023-08-10 11:44:33.233000,-4.891566265060241,-2.325301204819277,8.084337349397591,-2.182709993868792,-4.888412017167382,8.72838749233599,2.0,1.8615384615384616,537.1900826446281,-0.13262630382844878,1.6599265777052612,0.21210885146553243,1294.5054945054944,-1.0,66.38125464244716,1.8734645255123228,
2023-08-10 11:44:33.241000,-4.891566265060241,-2.325301204819277,8.060240963855422,-2.219497240956468,-4.888412017167382,8.723482526057634,2.0,1.863003663003663,536.7675973259929,-0.14894236932579713,1.1030825709457486,-0.13740458015267176,1320.8791208791208,-1.0,66.38125464244716,1.8733634850396896,
2023-08-10 11:44:33.248000,-4.903614457831326,-2.3373493975903616,8.084337349397591,-2.1630901287553645,-4.871244635193133,8.716125076640097,2.0,1.8615384615384616,537.1900826446281,0.37119049006468097,1.2549385233960717,-0.45451896742614045,1355.3113553113553,-1.0,66.38125464244716,1.8732623714136727,
2023-08-10 11:44:33.256000,-4.879518072289157,-2.325301204819277,8.048192771084338,-2.241569589209074,-4.954629061925199,8.708767627222562,2.0,1.8615384615384616,537.1900826446281,0.2756249635802111,0.9303653633238157,-0.03636151739409127,1395.6043956043954,-1.0,66.38125464244716,1.873161178286666,
2023-08-10 11:44:33.264000,-4.903614457831326,-2.3373493975903616,8.072289156626507,-2.160637645616186,-4.89086450030656,8.733292458614347,2.0,1.8615384615384616,537.1900826446281,0.3060427714002684,0.6719888118408014,-0.07994872093700829,1435.164835164835,-1.0,66.38125464244716,1.873059899415306,
2023-08-10 11:44:33.271000,-4.903614457831326,-2.313253012048193,8.072289156626507,-2.207234825260576,-4.898221949724095,8.750459840588595,2.0,1.863003663003663,536.7675973259929,0.35009614824310964,0.5505506672105355,-0.5798030417807822,1478.3882783882782,-1.0,66.38125464244716,1.8729585277223972,
2023-08-10 11:44:33.279000,-4.903614457831326,-2.3012048192771086,8.120481927710843,-2.118945432250153,-4.925199264255058,8.782342121397916,2.0,1.8615384615384616,537.1900826446281,0.3817959326379579,0.27748965677990794,-0.19462735271837311,1521.6117216117216,-1.0,66.38125464244716,1.8728570559035884,
2023-08-10 11:44:33.287000,-4.9156626506024095,-2.313253012048193,8.108433734939759,-2.160637645616186,-4.935009196811771,8.755364806866952,2.0,1.8615384615384616,537.1900826446281,0.21537206456500235,0.23471825651185765,-0.2075636617912707,1565.5677655677655,-1.0,66.38125464244716,1.8727554765414585,
2023-08-10 11:44:33.294000,-4.903614457831326,-2.289156626506024,8.096385542168676,-2.2244022072348253,-4.903126916002452,8.814224402207234,2.0,1.8615384615384616,537.1900826446281,0.20208612551716096,-0.049064739817027615,-0.326670939921916,1601.4652014652013,-1.0,66.38125464244716,1.872653781622998,
2023-08-10 11:44:33.302000,-4.9156626506024095,-2.3012048192771086,8.132530120481928,-2.1213979153893314,-4.917841814837523,8.762722256284487,2.0,1.8615384615384616,537.1900826446281,0.5221140959151558,-0.05897092244041781,-0.3225919235475789,1630.03663003663,-1.0,66.38125464244716,1.8725519630401417,
2023-08-10 11:44:33.310000,-4.927710843373494,-2.289156626506024,8.156626506024097,-2.2317596566523603,-4.9742489270386265,8.760269773145309,2.0,1.8615384615384616,537.1900826446281,-0.12038925470543665,-0.14731076277606195,-0.11864110483072063,1654.212454212454,-1.0,66.38125464244716,1.872450012632454,
2023-08-10 11:44:33.317000,-4.9156626506024095,-2.3012048192771086,8.144578313253012,-2.229307173513182,-4.861434702636419,8.801961986511342,2.0,1.8615384615384616,537.1900826446281,-0.3024299283258555,0.15849892197424306,-0.09964454285880783,1672.5274725274724,-1.0,66.38125464244716,1.8723479222298534,
2023-08-10 11:44:33.325000,-4.927710843373494,-2.313253012048193,8.108433734939759,-2.1704475781729,-4.971796443899448,8.75781729000613,2.0,1.8615384615384616,537.1900826446281,0.1276149408542624,0.3703746867898134,-0.1418332265019522,1686.4468864468863,-1.0,66.38125464244716,1.8722456836953394,
2023-08-10 11:44:33.333000,-4.927710843373494,-2.313253012048193,8.084337349397591,-2.1925199264255055,-4.954629061925199,8.72838749233599,2.0,1.8615384615384616,537.1900826446281,-0.13262630382844878,0.7750131111240603,0.02948546122020847,1693.7728937728937,-1.0,66.38125464244716,1.8721432889677398,
2023-08-10 11:44:33.340000,-4.963855421686747,-2.325301204819277,8.096385542168676,-2.1851624770079705,-4.9668914776210915,8.75781729000613,2.0,1.8615384615384616,537.1900826446281,-0.07062525493852402,0.6260707417982633,0.44088339840335655,1693.7728937728937,-1.0,66.38125464244716,1.872040730104459,
2023-08-10 11:44:33.348000,-4.9397590361445785,-2.3012048192771086,8.084337349397591,-2.199877375843041,-4.964438994481912,8.770079705702022,2.0,1.8615384615384616,537.1900826446281,-0.22306392401375144,0.9521589650952738,0.04242177029310648,1690.10989010989,-1.0,66.38125464244716,1.8719379993242182,
2023-08-10 11:44:33.356000,-4.975903614457832,-2.313253012048193,8.096385542168676,-2.1042305334150826,-4.90557939914163,8.735744941753525,2.0,1.8615384615384616,537.1900826446281,0.0844939106112696,0.7092826758347419,-0.016082978847386676,1684.9816849816848,-1.0,66.38125464244716,1.8718350890497975,
2023-08-10 11:44:33.363000,-4.963855421686747,-2.325301204819277,8.084337349397591,-2.1974248927038627,-4.986511342734518,8.735744941753525,2.0,1.8600732600732603,537.6132335565183,-0.2532486451838471,0.6846920342637386,-0.07307266476312592,1676.923076923077,-1.0,66.38125464244716,1.8717319919507378,
2023-08-10 11:44:33.371000,-4.951807228915663,-2.3012048192771086,8.084337349397591,-2.207234825260576,-4.927651747394236,8.730839975475169,2.0,1.8615384615384616,537.1900826446281,-0.08274576073655357,0.2959035021269148,0.005943709574033941,1667.3992673992673,-1.0,66.38125464244716,1.8716287004933618,
2023-08-10 11:44:33.379000,-4.9397590361445785,-2.313253012048193,8.072289156626507,-2.1925199264255055,-4.979153893316983,8.750459840588595,2.0,1.8615384615384616,537.1900826446281,-0.2478876522347182,0.5529980770351381,-0.26688421420663144,1656.4102564102564,-1.0,66.38125464244716,1.8715252074038784,
2023-08-10 11:44:33.386000,-4.9397590361445785,-2.313253012048193,8.060240963855422,-2.248927038626609,-4.9448191293684856,8.779889638258737,2.0,1.8615384615384616,537.1900826446281,-0.16758930132276742,0.5130237165666349,-0.18868364314433872,1645.4212454212452,-1.0,66.38125464244716,1.8714215062354422,
2023-08-10 11:44:33.394000,-4.9397590361445785,-2.3373493975903616,8.048192771084338,-2.2366646229307174,-4.912936848559166,8.750459840588595,2.0,1.8615384615384616,537.1900826446281,-0.3185129071732422,0.6274692616980351,-0.20045451896742622,1636.6300366300366,-1.0,66.38125464244716,1.8713175909521587,
2023-08-10 11:44:33.402000,-4.927710843373494,-2.313253012048193,8.048192771084338,-2.160637645616186,-4.935009196811771,8.801961986511342,2.0,1.8586080586080589,538.0370516357902,0.006293339548977319,0.6339956878969758,-0.09125342346017155,1626.3736263736262,-1.0,66.38125464244716,1.8712134559708449,
2023-08-10 11:44:33.409000,-4.951807228915663,-2.313253012048193,8.012048192771084,-2.153280196198651,-4.92274678111588,8.691600245248313,2.0,1.8600732600732603,537.6132335565183,-0.27014742730610136,0.5510168405104605,-0.18169104364547553,1614.6520146520145,-1.0,66.38125464244716,1.8711090956752463,
2023-08-10 11:44:33.417000,-4.951807228915663,-2.3012048192771086,8.048192771084338,-2.229307173513182,-4.920294297976701,8.701410177805027,2.0,1.8600732600732603,537.6132335565183,-0.26793310413146026,0.5471709107860843,-0.18052561039566456,1600.7326007326005,-1.0,66.38125464244716,1.8710045047385773,
2023-08-10 11:44:33.425000,-4.903614457831326,-2.325301204819277,8.072289156626507,-2.199877375843041,-4.898221949724095,8.718577559779275,2.0,1.8600732600732603,537.6132335565183,0.23728220966144126,0.05360992949128891,-0.009673095973428084,1586.8131868131868,-1.0,66.38125464244716,1.870899678653284,
2023-08-10 11:44:33.432000,-4.9156626506024095,-2.3012048192771086,8.048192771084338,-2.27835683629675,-4.895769466584917,8.691600245248313,2.0,1.8615384615384616,537.1900826446281,-0.22189849076394133,-0.2541809917836955,-0.2371656663364604,1576.5567765567764,-1.0,66.38125464244716,1.870794613311129,
2023-08-10 11:44:33.440000,-4.927710843373494,-2.325301204819277,8.060240963855422,-2.158185162477008,-4.876149601471489,8.760269773145309,2.0,1.8600732600732603,537.6132335565183,-0.5691975992075057,-0.3462502185187351,0.05477536274109902,1571.4285714285713,-1.0,66.38125464244716,1.8706893055323215,
2023-08-10 11:44:33.448000,-4.927710843373494,-2.3493975903614457,8.048192771084338,-2.187614960147149,-4.947271612507664,8.713672593500918,2.0,1.8615384615384616,537.1900826446281,-0.30499388147543915,-0.14789347940096786,-0.03577880076918579,1565.5677655677655,-1.0,66.38125464244716,1.8705837526800309,
2023-08-10 11:44:33.455000,-4.9397590361445785,-2.325301204819277,8.048192771084338,-2.190067443286327,-4.910484365419988,8.689147762109135,2.0,1.8600732600732603,537.6132335565183,-0.14649495950119434,-0.8378299632888527,-0.0340306508944702,1561.1721611721612,-1.0,66.38125464244716,1.8704779522041592,
2023-08-10 11:44:33.463000,-4.927710843373494,-2.313253012048193,8.036144578313253,-2.2636419374616796,-4.883507050889025,8.684242795830778,2.0,1.8600732600732603,537.6132335565183,-0.28121904317930163,-0.9774488666161638,-0.29357263562729463,1554.5787545787546,-1.0,66.38125464244716,1.8703719022364698,
2023-08-10 11:44:33.471000,-4.9397590361445785,-2.3373493975903616,8.036144578313253,-2.2562844880441446,-4.917841814837523,8.698957694665848,2.0,1.8600732600732603,537.6132335565183,-0.0010488899248292638,-0.9495950119456918,-0.07855020103723565,1550.18315018315,-1.0,66.38125464244716,1.870265601518303,
2023-08-10 11:44:33.478000,-4.9156626506024095,-2.325301204819277,8.060240963855422,-2.1263028816676885,-4.947271612507664,8.760269773145309,2.0,1.8600732600732603,537.6132335565183,0.09032107686032356,-1.167531029660276,-0.21409008799021012,1545.7875457875457,-1.0,66.38125464244716,1.8701590493966327,
2023-08-10 11:44:33.486000,-4.963855421686747,-2.3373493975903616,8.096385542168676,-2.1508277130594724,-4.976701410177805,8.765174739423665,2.0,1.8600732600732603,537.6132335565183,-0.15675077209952878,-0.6386574208962179,0.2433424625604569,1539.194139194139,-1.0,66.38125464244716,1.8700522458533846,
2023-08-10 11:44:33.494000,-4.951807228915663,-2.325301204819277,8.108433734939759,-2.177805027590435,-4.925199264255058,8.774984671980379,2.0,1.8600732600732603,537.6132335565183,-0.33739292582017416,-0.986189615989744,0.11759221490589136,1532.6007326007325,-1.0,66.38125464244716,1.8699451915332448,
2023-08-10 11:44:33.501000,-4.9397590361445785,-2.3373493975903616,8.132530120481928,-2.229307173513182,-4.976701410177805,8.814224402207234,2.0,1.8600732600732603,537.6132335565183,-0.36536332381562875,-0.8865450731309361,-0.06631315191422396,1528.2051282051282,-1.0,66.38125464244716,1.8698378877699315,
2023-08-10 11:44:33.509000,-4.927710843373494,-2.36144578313253,8.120481927710843,-2.190067443286327,-4.964438994481912,8.782342121397916,2.0,1.8600732600732603,537.6132335565183,-0.24019579278596737,-0.454868597401083,0.1306450673037702,1522.3443223443223,-1.0,66.38125464244716,1.869730336610968,
2023-08-10 11:44:33.517000,-4.9156626506024095,-2.36144578313253,8.132530120481928,-2.199877375843041,-4.900674432863274,8.797057020232986,2.0,1.8600732600732603,537.6132335565183,-0.32911834974651744,-0.2089621816910442,0.09789639298409182,1512.8205128205127,-1.0,66.38125464244716,1.8696225408409317,
2023-08-10 11:44:33.524000,-4.927710843373494,-2.36144578313253,8.120481927710843,-2.2342121397915387,-4.90557939914163,8.792152053954629,2.0,1.8586080586080589,538.0370516357902,-0.5091777868422587,0.007342229473806583,0.3871569255870868,1501.098901098901,-1.0,66.38125464244716,1.869514504003215,
2023-08-10 11:44:33.532000,-4.9156626506024095,-2.3734939759036147,8.120481927710843,-2.1925199264255055,-4.971796443899448,8.760269773145309,2.0,1.8600732600732603,537.6132335565183,-0.13973544665229368,0.2407785094108733,0.2635044577821807,1490.10989010989,-1.0,66.38125464244716,1.8694062299276222,
2023-08-10 11:44:33.539000,-4.9156626506024095,-2.36144578313253,8.120481927710843,-2.241569589209074,-4.988963825873697,8.80441446965052,2.0,1.8600732600732603,537.6132335565183,-0.1409008799021038,0.43086067245498555,0.24660567565992683,1480.5860805860805,-1.0,66.38125464244716,1.8692977231696422,
2023-08-10 11:44:33.547000,-4.927710843373494,-2.3734939759036147,8.108433734939759,-2.239117106069896,-4.952176578786021,8.7725321888412,2.0,1.8600732600732603,537.6132335565183,0.13146087057863695,0.5591748732591347,0.5210652059903269,1471.7948717948716,-1.0,66.38125464244716,1.8691889900101377,
2023-08-10 11:44:33.555000,-4.9156626506024095,-2.3734939759036147,8.108433734939759,-2.246474555487431,-4.866339668914776,8.779889638258737,2.0,1.8586080586080589,538.0370516357902,0.06561389196433763,0.6885379639881131,0.14940854262572134,1466.6666666666665,-1.0,66.38125464244716,1.8690800370297327,
2023-08-10 11:44:33.562000,-4.927710843373494,-2.3493975903614457,8.084337349397591,-2.1949724095646843,-4.9963212752912325,8.71122011036174,2.0,1.8586080586080589,538.0370516357902,0.3232911834974652,1.215896509527417,0.2709632305809685,1465.201465201465,-1.0,66.38125464244716,1.8689708716497255,
2023-08-10 11:44:33.570000,-4.903614457831326,-2.3373493975903616,8.096385542168676,-2.21704475781729,-4.876149601471489,8.738197424892704,2.0,1.8600732600732603,537.6132335565183,-0.018996561971912792,0.5192005127906296,-0.3260882232970105,1465.201465201465,-1.0,66.38125464244716,1.8688615028509836,
2023-08-10 11:44:33.578000,-4.891566265060241,-2.3373493975903616,8.072289156626507,-2.212139791538933,-4.917841814837523,8.66707541385653,2.0,1.8586080586080589,538.0370516357902,-0.036244974069109565,0.8988986655789291,-0.07831711438727354,1465.201465201465,-1.0,66.38125464244716,1.8687519402026573,
2023-08-10 11:44:33.585000,-4.879518072289157,-2.3493975903614457,8.060240963855422,-2.199877375843041,-4.873697118332311,8.745554874310239,2.0,1.8586080586080589,538.0370516357902,0.326437853271953,0.7872501602470725,0.017364955422178478,1462.2710622710622,-1.0,66.38125464244716,1.8686421935197495,
2023-08-10 11:44:33.593000,-4.879518072289157,-2.325301204819277,8.048192771084338,-2.1851624770079705,-4.895769466584917,8.740649908031882,2.0,1.8600732600732603,537.6132335565183,0.4123302837829961,0.7831711438727346,0.3542917079424276,1457.8754578754579,-1.0,66.38125464244716,1.8685322728345335,
2023-08-10 11:44:33.601000,-4.903614457831326,-2.325301204819277,8.048192771084338,-2.180257510729614,-4.915389331698345,8.740649908031882,2.0,1.8600732600732603,537.6132335565183,0.3143173474739234,0.5195501427655739,0.15430336227492558,1454.212454212454,-1.0,66.38125464244716,1.8684221893484263,
2023-08-10 11:44:33.608000,-4.903614457831326,-2.325301204819277,8.096385542168676,-2.241569589209074,-4.89086450030656,8.725935009196812,2.0,1.8600732600732603,537.6132335565183,0.478993065672163,0.5040498805430914,0.3819124759629392,1453.4798534798533,-1.0,66.38125464244716,1.8683119555030234,
2023-08-10 11:44:33.616000,-4.903614457831326,-2.325301204819277,8.084337349397591,-2.187614960147149,-4.908031882280809,8.718577559779275,2.0,1.8586080586080589,538.0370516357902,0.41302954373288286,0.4171085601072191,0.6395897674960668,1453.4798534798533,-1.0,66.38125464244716,1.8682015845242375,
2023-08-10 11:44:33.624000,-4.903614457831326,-2.325301204819277,8.096385542168676,-2.2366646229307174,-4.935009196811771,8.745554874310239,2.0,1.8586080586080589,538.0370516357902,0.08694132043587237,0.03997436046850501,0.7882990501719014,1453.4798534798533,-1.0,66.38125464244716,1.8680910903878059,
2023-08-10 11:44:33.631000,-4.891566265060241,-2.3373493975903616,8.096385542168676,-2.209687308399755,-4.927651747394236,8.767627222562844,2.0,1.8600732600732603,537.6132335565183,0.34496824194394243,-0.05943709574034115,0.6466989103199112,1453.4798534798533,-1.0,66.38125464244716,1.8679804872206536,
2023-08-10 11:44:33.639000,-4.9156626506024095,-2.325301204819277,8.060240963855422,-2.182709993868792,-4.942366646229307,8.75781729000613,2.0,1.8586080586080589,538.0370516357902,0.17376609754676214,-0.09661441640930088,0.5229298991900239,1452.7472527472526,-1.0,66.38125464244716,1.867869790279719,
2023-08-10 11:44:33.647000,-4.903614457831326,-2.3373493975903616,8.060240963855422,-2.246474555487431,-4.930104230533415,8.679337829552422,2.0,1.8586080586080589,538.0370516357902,0.41477769360759886,-0.7738476778742502,0.46092885030009906,1450.5494505494505,-1.0,66.38125464244716,1.8677590154878092,
2023-08-10 11:44:33.654000,-4.9156626506024095,-2.3493975903614457,8.084337349397591,-2.2244022072348253,-4.873697118332311,8.787247087676272,2.0,1.8586080586080589,538.0370516357902,0.5476370840860093,-0.713944408833984,0.5373812714876758,1447.6190476190475,-1.0,66.38125464244716,1.8676481784747658,
2023-08-10 11:44:33.662000,-4.903614457831326,-2.3493975903614457,8.108433734939759,-2.258736971183323,-4.947271612507664,8.765174739423665,2.0,1.8586080586080589,538.0370516357902,0.11467863178136525,-0.7630091486510117,0.18623623331973682,1443.956043956044,-1.0,66.38125464244716,1.8675372959707353,
2023-08-10 11:44:33.670000,-4.891566265060241,-2.3493975903614457,8.096385542168676,-2.182709993868792,-4.903126916002452,8.72838749233599,2.0,1.8586080586080589,538.0370516357902,0.40557077093409544,-0.6628984324922788,0.24975234543441507,1438.8278388278388,-1.0,66.38125464244716,1.8674263857219688,
2023-08-10 11:44:33.677000,-4.9156626506024095,-2.325301204819277,8.096385542168676,-2.2219497240956465,-4.92274678111588,8.7725321888412,2.0,1.8586080586080589,538.0370516357902,0.24718839228483144,-0.7480916030534351,0.48015849892197393,1435.164835164835,-1.0,66.38125464244716,1.8673154659838263,
2023-08-10 11:44:33.685000,-4.927710843373494,-2.3373493975903616,8.072289156626507,-2.177805027590435,-4.935009196811771,8.784794604537094,2.0,1.8586080586080589,538.0370516357902,0.42573276615581834,-0.5292232387390007,0.05151214964162952,1431.5018315018315,-1.0,66.38125464244716,1.8672045555042465,
2023-08-10 11:44:33.693000,-4.9397590361445785,-2.325301204819277,8.072289156626507,-2.1925199264255055,-4.932556713672593,8.698957694665848,2.0,1.8586080586080589,538.0370516357902,0.4195559699318218,-0.5295728687139449,0.05419264611619396,1426.3736263736262,-1.0,66.38125464244716,1.8670936735051389,
2023-08-10 11:44:33.700000,-4.9397590361445785,-2.325301204819277,8.036144578313253,-2.128755364806867,-4.976701410177805,8.733292458614347,2.0,1.8586080586080589,538.0370516357902,0.20231921216712262,-0.6224578987238504,0.10080997610861837,1419.7802197802198,-1.0,66.38125464244716,1.8669828396618524,
2023-08-10 11:44:33.708000,-4.951807228915663,-2.313253012048193,8.036144578313253,-2.158185162477008,-5.0036787247087675,8.760269773145309,2.0,1.8571428571428572,538.4615384615385,0.503117533943243,-0.6115028261756309,-0.09556552648447075,1411.7216117216117,-1.0,66.38125464244716,1.8668720740808475,
2023-08-10 11:44:33.716000,-4.9397590361445785,-2.313253012048193,8.072289156626507,-2.1729000613120784,-4.954629061925199,8.762722256284487,2.0,1.8586080586080589,538.0370516357902,0.5129071732416524,-0.9654449041431151,0.07528698793776573,1404.3956043956043,-1.0,66.38125464244716,1.8667613972409507,
2023-08-10 11:44:33.723000,-4.9397590361445785,-2.325301204819277,8.084337349397591,-2.0919681177191904,-4.9448191293684856,8.765174739423665,2.0,1.8586080586080589,538.0370516357902,0.6753685682652525,-0.9796631897908049,-0.06001981236524664,1394.8717948717947,-1.0,66.38125464244716,1.8666508303211433,
2023-08-10 11:44:33.731000,-4.927710843373494,-2.3012048192771086,8.096385542168676,-2.187614960147149,-4.947271612507664,8.787247087676272,2.0,1.8586080586080589,538.0370516357902,0.5306217586387743,-1.330691684633763,0.18577006001981217,1383.8827838827838,-1.0,66.38125464244716,1.866540395209951,
2023-08-10 11:44:33.739000,-4.927710843373494,-2.3012048192771086,8.108433734939759,-2.1753525444512567,-4.939914163090129,8.703862660944205,2.0,1.8586080586080589,538.0370516357902,0.4027737311345484,-1.6595769477303188,0.21805256103956636,1375.091575091575,-1.0,66.38125464244716,1.8664301140227202,
2023-08-10 11:44:33.746000,-4.9397590361445785,-2.3373493975903616,8.132530120481928,-2.21704475781729,-4.925199264255058,8.72838749233599,2.0,1.8586080586080589,538.0370516357902,0.2453236990851346,-1.34246256045685,0.27877163335469973,1367.7655677655678,-1.0,66.38125464244716,1.8663200090751815,
2023-08-10 11:44:33.754000,-4.9156626506024095,-2.3012048192771086,8.096385542168676,-2.2047823421213977,-4.964438994481912,8.721030042918455,2.0,1.8586080586080589,538.0370516357902,0.3192121671231272,-1.3003904201386864,0.44624439135248545,1359.7069597069597,-1.0,66.38125464244716,1.8662101023977373,
2023-08-10 11:44:33.762000,-4.927710843373494,-2.313253012048193,8.096385542168676,-2.1925199264255055,-4.912936848559166,8.748007357449417,2.0,1.8586080586080589,538.0370516357902,-0.3674611036652873,-1.5011945690810566,0.5048656838179595,1347.985347985348,-1.0,66.38125464244716,1.8661004162315393,
2023-08-10 11:44:33.769000,-4.9156626506024095,-2.3373493975903616,8.108433734939759,-2.158185162477008,-4.883507050889025,8.750459840588595,2.0,1.8586080586080589,538.0370516357902,0.1553522521997553,-1.363207272303479,0.38004778276324236,1340.6593406593406,-1.0,66.38125464244716,1.8659909734195572,
2023-08-10 11:44:33.777000,-4.903614457831326,-2.313253012048193,8.108433734939759,-2.1508277130594724,-4.927651747394236,8.748007357449417,2.0,1.8586080586080589,538.0370516357902,0.38552531903735165,-0.8135889516927919,0.6860905541635103,1335.5311355311355,-1.0,66.38125464244716,1.865881796883701,
2023-08-10 11:44:33.785000,-4.9156626506024095,-2.325301204819277,8.120481927710843,-2.182709993868792,-4.9963212752912325,8.738197424892704,2.0,1.8586080586080589,538.0370516357902,-0.012703222422935475,-0.6191946856243801,0.650078666744362,1333.3333333333333,-1.0,66.38125464244716,1.8657729095940219,
2023-08-10 11:44:33.792000,-4.951807228915663,-2.313253012048193,8.108433734939759,-2.2244022072348253,-5.008583690987124,8.75781729000613,2.0,1.8586080586080589,538.0370516357902,0.17178486102208446,0.1529048423751525,0.6471650836198355,1331.8681318681317,-1.0,66.38125464244716,1.8656643345375186,
2023-08-10 11:44:33.800000,-4.963855421686747,-2.325301204819277,8.132530120481928,-2.2317596566523603,-4.949724095646842,8.782342121397916,2.0,1.8586080586080589,538.0370516357902,-0.0564069692908342,0.06573043528931848,0.7202377483829614,1333.3333333333333,-1.0,66.38125464244716,1.8655560946867544,
2023-08-10 11:44:33.808000,-4.963855421686747,-2.3373493975903616,8.120481927710843,-2.158185162477008,-4.998773758430411,8.774984671980379,2.0,1.8586080586080589,538.0370516357902,-0.2229473806887706,0.5312044752636801,0.7456441932288331,1334.7985347985348,-1.0,66.38125464244716,1.8654482129684797,
2023-08-10 11:44:33.815000,-4.975903614457832,-2.325301204819277,8.132530120481928,-2.180257510729614,-4.942366646229307,8.801961986511342,2.0,1.8600732600732603,537.6132335565183,-0.09661441640930088,0.012353592447992964,0.49810617096905746,1333.3333333333333,-1.0,66.38125464244716,1.865340712232481,
2023-08-10 11:44:33.823000,-4.963855421686747,-2.325301204819277,8.096385542168676,-2.2023298589822193,-4.9742489270386265,8.7725321888412,2.0,1.8586080586080589,538.0370516357902,-0.15441990559990684,0.44717673795233387,0.7860847269972615,1331.8681318681317,-1.0,66.38125464244716,1.865233615713488,
2023-08-10 11:44:33.831000,-4.951807228915663,-2.3012048192771086,8.108433734939759,-2.219497240956468,-4.96934396076027,8.75781729000613,2.0,1.8586080586080589,538.0370516357902,-0.090204533535341,-0.11479517510634608,0.26070741798263536,1331.8681318681317,-1.0,66.38125464244716,1.8651269465805282,
2023-08-10 11:44:33.838000,-4.903614457831326,-2.325301204819277,8.084337349397591,-2.212139791538933,-4.881054567749846,8.801961986511342,2.0,1.8586080586080589,538.0370516357902,0.18880018646931956,-0.5963521939280927,0.5653516694831308,1334.7985347985348,-1.0,66.38125464244716,1.8650207273830526,
2023-08-10 11:44:33.846000,-4.927710843373494,-2.3012048192771086,8.132530120481928,-2.128755364806867,-4.930104230533415,8.750459840588595,2.0,1.8586080586080589,538.0370516357902,0.13216013052852368,-0.5104597634170496,0.4986888875939634,1340.6593406593406,-1.0,66.38125464244716,1.8649149809388508,
2023-08-10 11:44:33.854000,-4.891566265060241,-2.3012048192771086,8.132530120481928,-2.12385039852851,-4.908031882280809,8.801961986511342,2.0,1.8586080586080589,538.0370516357902,-0.2912417691276727,-0.731542450906125,0.46547403997436076,1346.5201465201465,-1.0,66.38125464244716,1.8648097297821868,
2023-08-10 11:44:33.861000,-4.879518072289157,-2.313253012048193,8.108433734939759,-2.1925199264255055,-4.925199264255058,8.794604537093807,2.0,1.8571428571428572,538.4615384615385,-0.2534817318338088,-0.23495134316182106,0.6904026571878091,1351.6483516483515,-1.0,66.38125464244716,1.8647049957171697,
2023-08-10 11:44:33.869000,-4.891566265060241,-2.325301204819277,8.120481927710843,-2.1753525444512567,-4.858982219497241,8.787247087676272,2.0,1.8571428571428572,538.4615384615385,-0.2016199522172376,-0.15441990559990684,0.6217586387739645,1356.0439560439559,-1.0,66.38125464244716,1.8646008002508385,
2023-08-10 11:44:33.877000,-4.903614457831326,-2.313253012048193,8.120481927710843,-2.229307173513182,-4.895769466584917,8.784794604537094,2.0,1.8571428571428572,538.4615384615385,-0.5165200163160653,0.01713186877221594,0.7978556028203491,1359.7069597069597,-1.0,66.38125464244716,1.8644971644304336,
2023-08-10 11:44:33.884000,-4.9156626506024095,-2.3493975903614457,8.120481927710843,-2.2562844880441446,-4.903126916002452,8.801961986511342,2.0,1.8586080586080589,538.0370516357902,-0.2175863877396417,0.2013868655672742,0.6211759221490586,1358.974358974359,-1.0,66.38125464244716,1.8643941087856482,
2023-08-10 11:44:33.892000,-4.867469879518072,-2.36144578313253,8.120481927710843,-2.2145922746781115,-4.885959534028204,8.806866952789699,2.0,1.8586080586080589,538.0370516357902,-0.04486918011770882,0.0027970397995452823,0.5679156226327139,1359.7069597069597,-1.0,66.38125464244716,1.8642916537988108,
2023-08-10 11:44:33.899000,-4.867469879518072,-2.3493975903614457,8.084337349397591,-2.1630901287553645,-4.89086450030656,8.713672593500918,2.0,1.8571428571428572,538.4615384615385,0.03414719421945104,-0.26047433133267284,0.7732649612493444,1358.2417582417581,-1.0,66.38125464244716,1.864189819955167,
2023-08-10 11:44:33.907000,-4.879518072289157,-2.3734939759036147,8.096385542168676,-2.21704475781729,-4.939914163090129,8.725935009196812,2.0,1.8571428571428572,538.4615384615385,0.06829438843890208,0.026105704795757703,1.008565934386108,1353.8461538461538,-1.0,66.38125464244716,1.8640886267767085,
2023-08-10 11:44:33.915000,-4.891566265060241,-2.36144578313253,8.060240963855422,-2.199877375843041,-4.866339668914776,8.784794604537094,2.0,1.8571428571428572,538.4615384615385,0.19136413961890317,-0.04323757356797364,0.9053085484528872,1348.7179487179487,-1.0,66.38125464244716,1.8639880927357715,
2023-08-10 11:44:33.922000,-4.879518072289157,-2.325301204819277,8.096385542168676,-2.1974248927038627,-4.876149601471489,8.792152053954629,2.0,1.8571428571428572,538.4615384615385,0.1774954839461576,-0.4760794825476369,1.0619427772274348,1342.1245421245421,-1.0,66.38125464244716,1.8638882356946702,
2023-08-10 11:44:33.930000,-4.879518072289157,-2.325301204819277,8.096385542168676,-2.128755364806867,-4.93746167995095,8.784794604537094,2.0,1.8586080586080589,538.0370516357902,-0.14078433657712294,-0.831886253714818,0.8979663189790806,1335.5311355311355,-1.0,66.38125464244716,1.8637890728884363,
2023-08-10 11:44:33.938000,-4.903614457831326,-2.3373493975903616,8.084337349397591,-2.209687308399755,-4.903126916002452,8.721030042918455,2.0,1.8571428571428572,538.4615384615385,-0.016898782122254267,-0.7546180292523741,1.1013344210710334,1330.4029304029302,-1.0,66.38125464244716,1.8636906214013258,
2023-08-10 11:44:33.945000,-4.9156626506024095,-2.325301204819277,8.048192771084338,-2.1508277130594724,-4.939914163090129,8.735744941753525,2.0,1.8571428571428572,538.4615384615385,-0.7478585164034735,-0.6647631256919756,0.9375910494726418,1324.5421245421244,-1.0,66.38125464244716,1.8635928977313614,
2023-08-10 11:44:33.953000,-4.9156626506024095,-2.325301204819277,8.060240963855422,-2.12385039852851,-4.881054567749846,8.674432863274065,2.0,1.8571428571428572,538.4615384615385,-0.344035895344094,-0.9710389837422057,1.1279062991667153,1317.216117216117,-1.0,66.38125464244716,1.8634959172521313,
2023-08-10 11:44:33.961000,-4.927710843373494,-2.36144578313253,8.084337349397591,-2.229307173513182,-4.917841814837523,8.75781729000613,2.0,1.8571428571428572,538.4615384615385,-0.21816910436454764,-0.9838587494901238,0.9650952741681718,1310.6227106227104,-1.0,66.38125464244716,1.8633996946589335,
2023-08-10 11:44:33.968000,-4.963855421686747,-2.3373493975903616,8.108433734939759,-2.27835683629675,-4.959534028203556,8.689147762109135,2.0,1.8571428571428572,538.4615384615385,-0.21653749781481246,-0.9802459064157091,0.953440941670066,1306.9597069597069,-1.0,66.38125464244716,1.8633042444163253,
2023-08-10 11:44:33.976000,-4.927710843373494,-2.3493975903614457,8.096385542168676,-2.241569589209074,-4.92274678111588,8.7725321888412,2.0,1.8571428571428572,538.4615384615385,-0.2760911368801344,-1.2945632538896343,0.7117300856593434,1306.9597069597069,-1.0,66.38125464244716,1.8632095802241622,
2023-08-10 11:44:33.984000,-4.963855421686747,-2.3493975903614457,8.132530120481928,-2.229307173513182,-4.9448191293684856,8.816676885346412,2.0,1.8571428571428572,538.4615384615385,-0.1820406736204189,-1.163452013285938,0.9498280985956526,1306.9597069597069,-1.0,66.38125464244716,1.8631157150470419,
2023-08-10 11:44:33.991000,-4.951807228915663,-2.36144578313253,8.108433734939759,-2.2440220723482525,-4.927651747394236,8.774984671980379,2.0,1.8556776556776557,538.8866956178445,-0.5322533651885094,-1.1435231047141787,0.7240836781073359,1308.4249084249084,-1.0,66.38125464244716,1.8630226615333654,
2023-08-10 11:44:33.999000,-4.951807228915663,-2.325301204819277,8.096385542168676,-2.275904353157572,-4.939914163090129,8.716125076640097,2.0,1.8556776556776557,538.8866956178445,-0.39100285531146134,-0.5757240254064447,0.6378416176213503,1309.1575091575091,-1.0,66.38125464244716,1.862930431029572,
2023-08-10 11:44:34.007000,-4.963855421686747,-2.3373493975903616,8.096385542168676,-2.199877375843041,-4.957081545064377,8.730839975475169,2.0,1.8571428571428572,538.4615384615385,-0.5239787891148526,-0.6986772332614649,0.7811899073480568,1308.4249084249084,-1.0,66.38125464244716,1.86283903350856,
2023-08-10 11:44:34.014000,-4.9397590361445785,-2.325301204819277,8.120481927710843,-2.187614960147149,-4.988963825873697,8.745554874310239,2.0,1.854212454212454,539.312524693797,-0.4134957170328062,-1.1874599382320372,0.7260649146320152,1304.0293040293038,-1.0,66.38125464244716,1.8627484780584753,
2023-08-10 11:44:34.022000,-4.927710843373494,-2.325301204819277,8.120481927710843,-2.1704475781729,-4.912936848559166,8.828939301042304,2.0,1.854212454212454,539.312524693797,0.06281685216479235,-0.7414486335295153,0.6106870229007634,1301.098901098901,-1.0,66.38125464244716,1.862658772949186,
2023-08-10 11:44:34.030000,-4.9156626506024095,-2.3012048192771086,8.180722891566266,-2.165542611894543,-4.971796443899448,8.873083997547516,2.0,1.8556776556776557,538.8866956178445,-0.090204533535341,-0.9668434240428886,0.8473865159373,1300.3663003663003,-1.0,66.38125464244716,1.8625699253866639,
2023-08-10 11:44:34.037000,-4.891566265060241,-2.27710843373494,8.180722891566266,-2.1974248927038627,-4.954629061925199,8.814224402207234,2.0,1.8556776556776557,538.8866956178445,-0.026804964745644456,-0.4449624147776945,0.9639298409183619,1301.8315018315018,-1.0,66.38125464244716,1.8624819414760172,
2023-08-10 11:44:34.045000,-4.9156626506024095,-2.2650602409638556,8.144578313253012,-2.136112814224402,-4.836909871244635,8.831391784181482,2.0,1.8556776556776557,538.8866956178445,0.2936891789522755,-0.41431152030767376,0.9857234426898195,1306.9597069597069,-1.0,66.38125464244716,1.8623948263581989,
2023-08-10 11:44:34.053000,-4.903614457831326,-2.2650602409638556,8.180722891566266,-2.128755364806867,-4.854077253218884,8.828939301042304,2.0,1.8556776556776557,538.8866956178445,-0.47491404929782677,-0.09428354990967895,1.066954140201619,1315.018315018315,-1.0,66.38125464244716,1.8623085847007392,
2023-08-10 11:44:34.060000,-4.879518072289157,-2.289156626506024,8.19277108433735,-2.1434702636419374,-4.895769466584917,8.824034334763947,2.0,1.8556776556776557,538.8866956178445,-0.07610279121263375,0.43820290192879213,0.8121904317930186,1328.2051282051282,-1.0,66.38125464244716,1.8622232201716051,
2023-08-10 11:44:34.068000,-4.879518072289157,-2.3012048192771086,8.156626506024097,-2.1630901287553645,-4.863887185775598,8.81912936848559,2.0,1.8556776556776557,538.8866956178445,0.1501078025756072,0.6459996503700245,1.0631082104772445,1343.5897435897434,-1.0,66.38125464244716,1.8621387354759424,
2023-08-10 11:44:34.076000,-4.879518072289157,-2.313253012048193,8.132530120481928,-2.128755364806867,-4.807480073574494,8.83874923359902,2.0,1.8556776556776557,538.8866956178445,-0.0075753161237682555,0.5024182739933563,0.6841093176388318,1362.6373626373625,-1.0,66.38125464244716,1.8620551323240846,
2023-08-10 11:44:34.083000,-4.867469879518072,-2.3012048192771086,8.108433734939759,-2.190067443286327,-4.846719803801348,8.816676885346412,2.0,1.8556776556776557,538.8866956178445,0.07889983101217903,0.2384476429112531,0.5841151448050816,1386.080586080586,-1.0,66.38125464244716,1.861972411012129,
2023-08-10 11:44:34.091000,-4.83132530120482,-2.3012048192771086,8.096385542168676,-2.153280196198651,-4.797670141017781,8.738197424892704,2.0,1.854212454212454,539.312524693797,-0.07656896451255708,0.8477361459122429,0.3488141716683172,1414.6520146520145,-1.0,66.38125464244716,1.861890570916998,
2023-08-10 11:44:34.099000,-4.819277108433735,-2.289156626506024,8.096385542168676,-2.158185162477008,-4.849172286940527,8.75781729000613,2.0,1.854212454212454,539.312524693797,0.28914398927801416,1.0889808286230414,0.5115086533418803,1449.8168498168498,-1.0,66.38125464244716,1.8618096100076305,
2023-08-10 11:44:34.106000,-4.879518072289157,-2.27710843373494,8.084337349397591,-2.1434702636419374,-4.900674432863274,8.716125076640097,2.0,1.854212454212454,539.312524693797,0.2702639706310822,1.2493444437969812,-0.16525843482314548,1488.6446886446886,-1.0,66.38125464244716,1.8617295252361044,
2023-08-10 11:44:34.114000,-4.879518072289157,-2.3012048192771086,8.084337349397591,-2.180257510729614,-4.822194972409564,8.755364806866952,2.0,1.854212454212454,539.312524693797,0.6182623390245315,1.3933919934735746,0.13915273002738865,1528.937728937729,-1.0,66.38125464244716,1.8616503129298403,
2023-08-10 11:44:34.122000,-4.891566265060241,-2.313253012048193,8.084337349397591,-2.1851624770079705,-4.893316983445739,8.75781729000613,2.0,1.854212454212454,539.312524693797,0.5522988170852514,1.0770934094749733,0.13623914690286165,1569.230769230769,-1.0,66.38125464244716,1.8615719683060061,
2023-08-10 11:44:34.129000,-4.891566265060241,-2.313253012048193,8.072289156626507,-2.177805027590435,-4.92274678111588,8.80441446965052,2.0,1.854212454212454,539.312524693797,0.24264320261057015,0.7007750131111252,-0.003379756424451417,1605.8608058608058,957.489013671875,62.66390438247012,1.8614944854792945,
2023-08-10 11:44:34.137000,-4.9156626506024095,-2.3012048192771086,8.084337349397591,-2.1949724095646843,-4.917841814837523,8.75781729000613,2.0,1.854212454212454,539.312524693797,0.05454227609113734,0.5583590699842671,0.08554280053609885,1637.3626373626373,-1.0,62.66390438247012,1.861417857470521,
2023-08-10 11:44:34.145000,-4.927710843373494,-2.313253012048193,8.120481927710843,-2.1925199264255055,-4.96934396076027,8.777437155119559,2.0,1.854212454212454,539.312524693797,-0.07109142823844736,0.049880543091895206,-0.14789347940096678,1665.201465201465,-1.0,62.66390438247012,1.8613420762162187,
2023-08-10 11:44:34.152000,-4.927710843373494,-2.313253012048193,8.132530120481928,-2.2047823421213977,-4.912936848559166,8.816676885346412,2.0,1.854212454212454,539.312524693797,0.38435988578754154,-0.6837596876638884,-0.04370374686789764,1686.4468864468863,-1.0,62.66390438247012,1.8612671325793484,
2023-08-10 11:44:34.160000,-4.903614457831326,-2.289156626506024,8.144578313253012,-2.111587982832618,-4.858982219497241,8.81912936848559,2.0,1.854212454212454,539.312524693797,0.20814637841617661,-1.0777926694248585,-0.10815220558242561,1703.296703296703,-1.0,62.66390438247012,1.8611930163613084,
2023-08-10 11:44:34.168000,-4.855421686746988,-2.3012048192771086,8.144578313253012,-2.160637645616186,-4.834457388105457,8.755364806866952,2.0,1.8527472527472526,539.7390272835113,0.4467105646524088,-0.5672163626828263,-0.21980071091428283,1712.087912087912,-1.0,62.66390438247012,1.8611197163153979,
2023-08-10 11:44:34.175000,-4.83132530120482,-2.289156626506024,8.180722891566266,-2.148375229920294,-4.773145309625996,8.843654199877376,2.0,1.8527472527472526,539.7390272835113,0.19719130586795713,-0.30277955830079806,-0.009206922673503438,1720.14652014652,-1.0,62.66390438247012,1.8610472201270771,
2023-08-10 11:44:34.183000,-4.843373493975903,-2.27710843373494,8.180722891566266,-2.1213979153893314,-4.824647455548742,8.831391784181482,2.0,1.8527472527472526,539.7390272835113,0.3769011129887541,0.20243575549210346,-0.2868131227783933,1723.8095238095236,-1.0,62.66390438247012,1.8609755142913684,
2023-08-10 11:44:34.191000,-4.867469879518072,-2.289156626506024,8.144578313253012,-2.1459227467811157,-4.863887185775598,8.816676885346412,2.0,1.8527472527472526,539.7390272835113,0.2988170852514427,0.8435405862129258,-0.24509061243517272,1720.14652014652,-1.0,62.66390438247012,1.8609045836376736,
2023-08-10 11:44:34.198000,-4.867469879518072,-2.289156626506024,8.144578313253012,-2.190067443286327,-4.871244635193133,8.824034334763947,2.0,1.8527472527472526,539.7390272835113,0.10174232270846637,0.9659110774430402,-0.40020977798496543,1715.018315018315,-1.0,62.66390438247012,1.8608344118732139,
2023-08-10 11:44:34.206000,-4.879518072289157,-2.313253012048193,8.180722891566266,-2.1434702636419374,-4.9668914776210915,8.831391784181482,2.0,1.8527472527472526,539.7390272835113,0.4066196608589247,1.518093351203309,-0.4918128314200799,1711.3553113553112,-1.0,62.66390438247012,1.860764982023474,
2023-08-10 11:44:34.214000,-4.903614457831326,-2.313253012048193,8.132530120481928,-2.2047823421213977,-4.895769466584917,8.799509503372164,2.0,1.8527472527472526,539.7390272835113,0.6912184604626775,1.3058679564127962,-0.4756133092477131,1705.4945054945053,-1.0,62.66390438247012,1.8606962755028076,
2023-08-10 11:44:34.221000,-4.9156626506024095,-2.3012048192771086,8.144578313253012,-2.1974248927038627,-4.858982219497241,8.814224402207234,2.0,1.8527472527472526,539.7390272835113,0.5308548452887358,1.142124584814405,-0.5059145737427891,1696.7032967032967,-1.0,62.66390438247012,1.8606282726621222,
2023-08-10 11:44:34.229000,-4.927710843373494,-2.313253012048193,8.132530120481928,-2.1042305334150826,-4.858982219497241,8.833844267320663,2.0,1.8527472527472526,539.7390272835113,0.906007808402774,1.6366179127090488,-0.48854961832061067,1683.5164835164835,-1.0,62.66390438247012,1.8605609532341085,
2023-08-10 11:44:34.237000,-4.891566265060241,-2.3012048192771086,8.132530120481928,-2.1753525444512567,-4.881054567749846,8.81912936848559,2.0,1.8527472527472526,539.7390272835113,0.9146320144513715,1.1808169687081174,-0.7457607365538136,1668.8644688644688,-1.0,62.66390438247012,1.8604942958671122,
2023-08-10 11:44:34.244000,-4.879518072289157,-2.313253012048193,8.084337349397591,-2.1557326793378295,-4.925199264255058,8.774984671980379,2.0,1.8527472527472526,539.7390272835113,0.9062408950527356,1.1841967251325687,-0.7407493735796287,1654.212454212454,-1.0,62.66390438247012,1.8604282781536299,
2023-08-10 11:44:34.252000,-4.891566265060241,-2.3012048192771086,8.108433734939759,-2.2023298589822193,-4.878602084610668,8.809319435928877,2.0,1.8527472527472526,539.7390272835113,0.8061301788940045,1.8246022959035026,-0.43307499562962554,1642.4908424908424,-1.0,62.66390438247012,1.8603628766609437,
2023-08-10 11:44:34.260000,-4.9156626506024095,-2.3373493975903616,8.108433734939759,-2.212139791538933,-4.895769466584917,8.792152053954629,2.0,1.8527472527472526,539.7390272835113,0.9396888293222999,1.4383777169162641,-0.19124759629392235,1632.9670329670328,-1.0,62.66390438247012,1.8602980669640783,
2023-08-10 11:44:34.267000,-4.927710843373494,-2.3493975903614457,8.096385542168676,-2.209687308399755,-4.932556713672593,8.767627222562844,2.0,1.8527472527472526,539.7390272835113,0.6440184138453467,1.8923139677174987,-0.07027562496358021,1625.6410256410256,-1.0,62.66390438247012,1.86023382368125,
2023-08-10 11:44:34.275000,-4.975903614457832,-2.36144578313253,8.108433734939759,-2.239117106069896,-4.9742489270386265,8.770079705702022,2.0,1.8527472527472526,539.7390272835113,0.5034671639181872,1.9438261173591274,-0.08799021036070184,1618.3150183150183,-1.0,62.66390438247012,1.8601701205119758,
2023-08-10 11:44:34.282000,-5.0,-2.397590361445783,8.084337349397591,-2.2562844880441446,-5.008583690987124,8.730839975475169,2.0,1.8512820512820514,540.1662049861495,0.639123594196143,1.73439776236816,0.10430627585805019,1610.2564102564102,-1.0,62.66390438247012,1.8601069307358598,
2023-08-10 11:44:34.290000,-4.9879518072289155,-2.397590361445783,8.060240963855422,-2.246474555487431,-5.008583690987124,8.71122011036174,2.0,1.8512820512820514,540.1662049861495,0.19381154944350595,1.8907989044927462,0.3590699842666512,1603.6630036630036,-1.0,62.66390438247012,1.8600442262386727,
2023-08-10 11:44:34.298000,-4.963855421686747,-2.4216867469879517,8.024096385542169,-2.3274064990803187,-4.939914163090129,8.66707541385653,2.0,1.8512820512820514,540.1662049861495,0.42235300973136713,1.587553172892023,0.1842549967950587,1595.6043956043954,-1.0,62.66390438247012,1.8599819770659876,
2023-08-10 11:44:34.305000,-4.951807228915663,-2.433734939759036,8.036144578313253,-2.3151440833844266,-4.971796443899448,8.706315144083383,2.0,1.8512820512820514,540.1662049861495,0.068877105063808,1.8949944641920633,0.22353009731367632,1590.4761904761904,-1.0,62.66390438247012,1.8599201524176519,
2023-08-10 11:44:34.313000,-4.951807228915663,-2.4096385542168677,8.0,-2.322501532801962,-4.964438994481912,8.640098099325566,2.0,1.8512820512820514,540.1662049861495,0.17854437387098687,2.306742031350155,0.2471883922848321,1583.8827838827838,-1.0,62.66390438247012,1.8598587211522772,
2023-08-10 11:44:34.321000,-4.963855421686747,-2.4096385542168677,8.036144578313253,-2.275904353157572,-4.96934396076027,8.674432863274065,2.0,1.8512820512820514,540.1662049861495,-0.0533768428413255,2.8213973544665216,0.7454111065788707,1575.8241758241757,-1.0,62.66390438247012,1.8597976513115138,
2023-08-10 11:44:34.328000,-4.963855421686747,-2.3855421686746987,8.060240963855422,-2.280809319435929,-4.961986511342734,8.748007357449417,2.0,1.8512820512820514,540.1662049861495,0.3562729444671061,3.2732358254180975,0.7818891672979428,1566.3003663003662,-1.0,62.66390438247012,1.8597369102091084,
2023-08-10 11:44:34.336000,-4.951807228915663,-2.3855421686746987,8.048192771084338,-2.293071735131821,-4.98405885959534,8.755364806866952,2.0,1.8512820512820514,540.1662049861495,0.2316881300623507,3.585688479692326,1.0314084260823966,1558.2417582417581,-1.0,62.66390438247012,1.8596764649109523,
2023-08-10 11:44:34.344000,-4.963855421686747,-2.3734939759036147,8.012048192771084,-2.2562844880441446,-4.976701410177805,8.676885346413243,2.0,1.8512820512820514,540.1662049861495,-0.22982343686265383,3.9903269040265714,0.6695414020161998,1547.985347985348,-1.0,62.66390438247012,1.8596162818043926,
2023-08-10 11:44:34.351000,-4.963855421686747,-2.3734939759036147,8.012048192771084,-2.248927038626609,-5.008583690987124,8.71122011036174,2.0,1.8512820512820514,540.1662049861495,0.06071907231513382,4.222714294038807,0.6341122312219568,1537.7289377289376,-1.0,62.66390438247012,1.8595563266626651,
2023-08-10 11:44:34.359000,-5.0,-2.3855421686746987,8.024096385542169,-2.251379521765788,-4.9816063764561616,8.71122011036174,2.0,1.84981684981685,540.5940594059406,-0.01853038867198945,4.303012644950761,0.5653516694831308,1528.2051282051282,-1.0,62.66390438247012,1.8594965647118218,
2023-08-10 11:44:34.367000,-5.0,-2.36144578313253,8.036144578313253,-2.2145922746781115,-4.991416309012875,8.723482526057634,2.0,1.84981684981685,540.5940594059406,0.027271138045567803,4.31967834042305,0.7103315657595711,1516.4835164835163,-1.0,62.66390438247012,1.8594369602075285,
2023-08-10 11:44:34.374000,-5.0,-2.3493975903614457,8.024096385542169,-2.2317596566523603,-4.971796443899448,8.706315144083383,2.0,1.84981684981685,540.5940594059406,0.2868131227783922,3.7853271953848826,0.9240720237748383,1504.0293040293038,-1.0,62.66390438247012,1.8593774764348525,
2023-08-10 11:44:34.382000,-5.048192771084338,-2.3373493975903616,8.048192771084338,-2.1949724095646843,-5.050275904353157,8.723482526057634,2.0,1.84981684981685,540.5940594059406,-0.033797564244508534,3.296777577064272,0.7408659169046093,1496.7032967032967,-1.0,62.66390438247012,1.8593180762351036,
2023-08-10 11:44:34.390000,-5.072289156626506,-2.3373493975903616,8.048192771084338,-2.1925199264255055,-5.042918454935622,8.725935009196812,2.0,1.84981684981685,540.5940594059406,0.27154594720587316,2.533418798438318,0.9698735504923955,1492.3076923076922,-1.0,62.66390438247012,1.8592587220766863,
2023-08-10 11:44:34.397000,-5.072289156626506,-2.3373493975903616,8.036144578313253,-2.187614960147149,-5.104230533415082,8.684242795830778,2.0,1.84981684981685,540.5940594059406,-0.18646931996969937,1.9838004778276306,0.8324689703397239,1490.10989010989,-1.0,62.66390438247012,1.859199376127869,
2023-08-10 11:44:34.405000,-5.048192771084338,-2.36144578313253,8.024096385542169,-2.2145922746781115,-5.094420600858369,8.691600245248313,2.0,1.84981684981685,540.5940594059406,0.1341413670532014,1.4189149816444246,0.9088048482023192,1492.3076923076922,-1.0,62.66390438247012,1.8591400003314118,
2023-08-10 11:44:34.413000,-5.048192771084338,-2.3373493975903616,7.987951807228916,-2.2244022072348253,-5.001226241569589,8.664622930717352,2.0,1.84981684981685,540.5940594059406,0.16467571819823956,0.2586096381329743,1.1378124817901054,1497.4358974358972,-1.0,62.66390438247012,1.8590805564810593,
2023-08-10 11:44:34.420000,-5.0120481927710845,-2.325301204819277,8.024096385542169,-2.190067443286327,-5.0772532188841195,8.6817903126916,2.0,1.84981684981685,540.5940594059406,0.3784161762135067,-0.9016957053784761,1.2904842375152963,1501.098901098901,-1.0,62.66390438247012,1.859021006299837,
2023-08-10 11:44:34.428000,-4.975903614457832,-2.3012048192771086,8.024096385542169,-2.094420600858369,-4.959534028203556,8.659717964438993,2.0,1.84981684981685,540.5940594059406,0.7142940388089265,-1.3597109725540486,1.3668201153778918,1501.8315018315018,-1.0,62.66390438247012,1.858961311977964,
2023-08-10 11:44:34.436000,-4.951807228915663,-2.3012048192771086,8.048192771084338,-2.219497240956468,-4.954629061925199,8.708767627222562,2.0,1.84981684981685,540.5940594059406,0.7295612143814456,-1.5123827282792395,1.4736903443855254,1499.6336996336995,-1.0,62.66390438247012,1.8589014361873273,
2023-08-10 11:44:34.443000,-4.963855421686747,-2.27710843373494,8.048192771084338,-2.141017780502759,-5.023298589822195,8.686695278969957,2.0,1.8483516483516484,541.0225921521998,0.8669657945341174,-1.4818483771342013,1.6874308024007925,1494.5054945054944,-1.0,62.66390438247012,1.8588413416764313,
2023-08-10 11:44:34.451000,-4.9397590361445785,-2.289156626506024,8.072289156626507,-2.1434702636419374,-4.993868792152053,8.703862660944205,2.0,1.8483516483516484,541.0225921521998,1.0043703746867891,-1.1917720412563386,2.084377367286289,1487.179487179487,-1.0,62.66390438247012,1.858780990866176,
2023-08-10 11:44:34.459000,-5.0,-2.27710843373494,8.060240963855422,-2.160637645616186,-5.020846106683016,8.71122011036174,2.0,1.8483516483516484,541.0225921521998,1.0043703746867891,-1.1001689878212242,2.5423926344618613,1477.6556776556777,-1.0,62.66390438247012,1.8587203458668542,
2023-08-10 11:44:34.466000,-5.024096385542169,-2.240963855421687,8.048192771084338,-2.1213979153893314,-5.067443286327406,8.684242795830778,2.0,1.84981684981685,540.5940594059406,1.1112406036944227,-1.1459705145387815,2.6187285123244566,1472.5274725274724,-1.0,62.66390438247012,1.8586593690202533,
2023-08-10 11:44:34.474000,-5.0602409638554215,-2.240963855421687,8.048192771084338,-2.1312078479460452,-5.101778050275904,8.762722256284487,2.0,1.8483516483516484,541.0225921521998,1.523454344152438,-1.6345201328593921,2.9546063749198765,1468.131868131868,-1.0,62.66390438247012,1.8585980234764081,
2023-08-10 11:44:34.482000,-5.0843373493975905,-2.240963855421687,8.144578313253012,-2.07725321888412,-5.101778050275904,8.777437155119559,2.0,1.8483516483516484,541.0225921521998,2.0272711380455677,-2.550550667210537,2.8935376726298,1465.9340659340658,-1.0,62.66390438247012,1.8585362733148434,
2023-08-10 11:44:34.489000,-5.120481927710844,-2.253012048192771,8.19277108433735,-2.165542611894543,-5.111587982832618,8.828939301042304,2.0,1.8483516483516484,541.0225921521998,1.9814696113280106,-3.1765048656838193,3.030942252782472,1464.4688644688645,-1.0,62.66390438247012,1.8584740830363125,
2023-08-10 11:44:34.497000,-5.072289156626506,-2.240963855421687,8.216867469879519,-2.12385039852851,-5.042918454935622,8.885346413243408,2.0,1.8483516483516484,541.0225921521998,1.9967367869005295,-3.084901812248705,2.9698735504923954,1460.8058608058607,-1.0,62.66390438247012,1.8584114176159237,
2023-08-10 11:44:34.505000,-5.0120481927710845,-2.27710843373494,8.19277108433735,-2.1164929491109747,-4.959534028203556,8.865726548129981,2.0,1.8483516483516484,541.0225921521998,1.9356680846104533,-2.718489598508247,3.1683468329351436,1454.9450549450548,-1.0,62.66390438247012,1.8583482425897888,
2023-08-10 11:44:34.512000,-4.9879518072289155,-2.289156626506024,8.180722891566266,-2.1949724095646843,-5.006131207847946,8.851011649294911,2.0,1.8483516483516484,541.0225921521998,2.302080298350911,-1.9398636443097736,3.39735446652293,1449.084249084249,-1.0,62.66390438247012,1.858284524140289,
2023-08-10 11:44:34.520000,-4.927710843373494,-2.3373493975903616,8.156626506024097,-2.182709993868792,-4.935009196811771,8.814224402207234,2.0,1.8483516483516484,541.0225921521998,2.057805489190606,-1.3291766214090104,3.672163626828273,1443.956043956044,-1.0,62.66390438247012,1.858220229179831,
2023-08-10 11:44:34.528000,-4.855421686746988,-2.36144578313253,8.120481927710843,-2.207234825260576,-4.797670141017781,8.806866952789699,2.0,1.8483516483516484,541.0225921521998,2.057805489190606,-1.3291766214090104,3.672163626828273,1438.8278388278388,-1.0,62.66390438247012,1.8581553254329686,
2023-08-10 11:44:34.535000,-4.795180722891566,-2.3855421686746987,8.072289156626507,-2.1851624770079705,-4.778050275904353,8.708767627222562,2.0,1.8483516483516484,541.0225921521998,2.271545947205873,-1.603985781714354,3.840102558125983,1431.5018315018315,-1.0,62.66390438247012,1.8580897815168063,
2023-08-10 11:44:34.543000,-4.734939759036145,-2.3734939759036147,8.048192771084338,-2.2660944206008584,-4.7363580625383195,8.698957694665848,2.0,1.8468864468864472,541.4518048393494,2.439484878503583,-1.069634636676186,3.794301031408426,1424.9084249084249,-1.0,62.66390438247012,1.8580235670195557,
2023-08-10 11:44:34.551000,-4.698795180722891,-2.325301204819277,8.024096385542169,-2.1679950950337217,-4.684855916615573,8.669527896995708,2.0,1.8468864468864472,541.4518048393494,2.31734747392343,-0.32154303362275094,3.840102558125983,1420.5128205128203,-1.0,62.66390438247012,1.857956652084485,
2023-08-10 11:44:34.558000,-4.63855421686747,-2.2289156626506026,8.0,-2.1164929491109747,-4.625996321275291,8.647455548743102,2.0,1.8468864468864472,541.4518048393494,1.5692558708699953,0.07540353126274525,3.8248353825534642,1414.6520146520145,-1.0,62.66390438247012,1.8578890074123233,
2023-08-10 11:44:34.566000,-4.614457831325302,-2.168674698795181,7.951807228915663,-2.0453709380748006,-4.59656652360515,8.51256897608829,2.0,1.8468864468864472,541.4518048393494,1.4471184662898426,1.4036478060719055,3.4736903443855254,1408.058608058608,-1.0,62.66390438247012,1.8578206047860237,
2023-08-10 11:44:34.574000,-4.63855421686747,-2.1566265060240966,7.927710843373494,-1.9202942979767013,-4.652973635806253,8.519926425505824,2.0,1.8468864468864472,541.4518048393494,0.3784161762135067,2.625021851873432,3.1836140085076625,1402.197802197802,-1.0,62.66390438247012,1.85775141713484,
2023-08-10 11:44:34.581000,-4.771084337349397,-2.132530120481928,7.91566265060241,-2.0551808706315144,-4.836909871244635,8.539546290619251,2.0,1.8468864468864472,541.4518048393494,-0.2780723734048139,3.1593729969116002,3.443155993240487,1397.8021978021977,-1.0,62.66390438247012,1.8576814185955146,
2023-08-10 11:44:34.589000,-4.9156626506024095,-2.132530120481928,7.903614457831326,-2.0159411404046597,-4.912936848559166,8.49540159411404,2.0,1.8468864468864472,541.4518048393494,-0.9498280985956535,3.6021210885146537,3.244682710797739,1393.4065934065934,-1.0,62.66390438247012,1.8576105845705477,
2023-08-10 11:44:34.597000,-5.0,-2.144578313253012,7.891566265060241,-2.0036787247087675,-5.064990803188228,8.583690987124463,2.0,1.8468864468864472,541.4518048393494,-1.743721228366646,2.365479867140608,2.7714002680496472,1385.3479853479853,-1.0,62.66390438247012,1.8575388922413771,
2023-08-10 11:44:34.604000,-5.120481927710844,-2.144578313253012,7.9397590361445785,-2.03065603923973,-5.079705702023299,8.58859595340282,2.0,1.8468864468864472,541.4518048393494,-2.293339548977333,0.9608997144688521,2.55765981003438,1377.2893772893772,-1.0,62.66390438247012,1.857466320553432,
2023-08-10 11:44:34.612000,-5.156626506024097,-2.1566265060240966,7.975903614457832,-1.9914163090128754,-5.187614960147148,8.694052728387492,2.0,1.8468864468864472,541.4518048393494,-2.2170036711147376,-0.8711613542334379,2.3591865275916324,1373.6263736263736,-1.0,62.66390438247012,1.857392849777072,
2023-08-10 11:44:34.620000,-5.216867469879518,-2.132530120481928,8.072289156626507,-1.9987737584304106,-5.207234825260576,8.750459840588595,2.0,1.8468864468864472,541.4518048393494,-2.644484587145272,-2.520016316065499,2.466056756599266,1369.9633699633698,-1.0,62.66390438247012,1.8573184615575,
2023-08-10 11:44:34.627000,-5.204819277108434,-2.0843373493975905,8.180722891566266,-1.947271612507664,-5.285714285714286,8.892703862660944,2.0,1.8454212454212457,541.8816990869392,-2.629217411572753,-4.443680438202904,2.313385000874075,1367.032967032967,-1.0,62.66390438247012,1.8572431385031452,
2023-08-10 11:44:34.635000,-5.204819277108434,-2.060240963855422,8.240963855421688,-1.8859595340282034,-5.197424892703863,8.954015941140405,2.0,1.8454212454212457,541.8816990869392,-3.2093700833284777,-5.298642270263972,2.5423926344618613,1366.3003663003662,-1.0,62.66390438247012,1.8571668647185662,
2023-08-10 11:44:34.643000,-5.216867469879518,-2.0481927710843375,8.289156626506024,-1.8712446351931329,-5.236664622930717,8.985898221949723,2.0,1.8454212454212457,541.8816990869392,-3.194102907755959,-5.756657537439545,2.6339956878969755,1367.7655677655678,-1.0,62.66390438247012,1.8570896261250818,
2023-08-10 11:44:34.650000,-5.216867469879518,-2.0843373493975905,8.313253012048193,-1.883507050889025,-5.229307173513182,9.032495401594113,2.0,1.8454212454212457,541.8816990869392,-3.3467746634811495,-5.359710972554049,2.8935376726298,1367.032967032967,-1.0,62.66390438247012,1.857011409510127,
2023-08-10 11:44:34.658000,-5.156626506024097,-2.0843373493975905,8.301204819277109,-1.9497240956468422,-5.175352544451257,9.003065603923973,2.0,1.8468864468864472,541.4518048393494,-3.1788357321834395,-4.962764407668552,3.443155993240487,1364.8351648351647,-1.0,62.66390438247012,1.8569322026244102,
2023-08-10 11:44:34.665000,-5.096385542168675,-2.096385542168675,8.27710843373494,-1.917841814837523,-5.052728387492336,8.897608828939301,2.0,1.8454212454212457,541.8816990869392,-2.904026571878096,-4.184138453470079,3.412621642095449,1364.8351648351647,-1.0,62.66390438247012,1.8568519956459693,
2023-08-10 11:44:34.673000,-4.975903614457832,-2.1204819277108435,8.216867469879519,-1.993868792152054,-5.018393623543838,8.794604537093807,2.0,1.8454212454212457,541.8816990869392,-2.5681487092826765,-3.100168987821224,3.3210185886603343,1367.032967032967,-1.0,62.66390438247012,1.8567707802514524,
2023-08-10 11:44:34.681000,-4.891566265060241,-2.180722891566265,8.096385542168676,-2.0502759043531573,-4.89086450030656,8.671980380134887,2.0,1.8454212454212457,541.8816990869392,-2.33914107569489,-1.436046850416644,3.8248353825534642,1367.7655677655678,-1.0,62.66390438247012,1.856688549141389,
2023-08-10 11:44:34.688000,-4.879518072289157,-2.27710843373494,8.012048192771084,-2.209687308399755,-4.954629061925199,8.586143470263641,2.0,1.8454212454212457,541.8816990869392,-2.873492220733058,0.8845638366062567,4.9546063749198765,1368.4981684981683,-1.0,62.66390438247012,1.856605296932754,
2023-08-10 11:44:34.696000,-4.963855421686747,-2.3855421686746987,7.903614457831326,-2.2047823421213977,-4.92274678111588,8.529736358062538,2.0,1.8454212454212457,541.8816990869392,-3.3773090146261877,2.5639531495833556,5.763766680263387,1369.9633699633698,-1.0,62.66390438247012,1.8565210192183996,
2023-08-10 11:44:34.704000,-5.024096385542169,-2.433734939759036,7.891566265060241,-2.300429184549356,-5.0772532188841195,8.556713672593501,2.0,1.8454212454212457,541.8816990869392,-3.224637258900997,2.8845638366062567,6.481323932171785,1370.6959706959706,-1.0,62.66390438247012,1.856435713098091,
2023-08-10 11:44:34.711000,-5.072289156626506,-2.4819277108433737,7.83132530120482,-2.3347639484978537,-5.126302881667688,8.451256897608829,2.0,1.8454212454212457,541.8816990869392,-4.140667793252142,1.296777577064272,6.756133092477128,1369.230769230769,-1.0,62.66390438247012,1.8563493771437733,
2023-08-10 11:44:34.719000,-5.0843373493975905,-2.4939759036144578,7.783132530120482,-2.4132434089515633,-5.052728387492336,8.399754751686082,2.0,1.8454212454212457,541.8816990869392,-4.980362449740691,-0.47421478934794176,6.588194161179418,1366.3003663003662,-1.0,62.66390438247012,1.8562620114310004,
2023-08-10 11:44:34.727000,-5.048192771084338,-2.5060240963855422,7.710843373493976,-2.388718577559779,-5.052728387492336,8.29429797670141,2.0,1.8454212454212457,541.8816990869392,-6.2933395489773325,-2.2757415069051934,6.420255229881708,1364.102564102564,-1.0,62.66390438247012,1.8561736179555317,
2023-08-10 11:44:34.734000,-5.024096385542169,-2.4698795180722892,7.674698795180723,-2.3249540159411404,-5.015941140404659,8.286940527283875,2.0,1.8454212454212457,541.8816990869392,-7.423110541343745,-2.9780315832410715,6.420255229881708,1364.8351648351647,-1.0,62.66390438247012,1.8560842001335145,
2023-08-10 11:44:34.742000,-5.072289156626506,-2.4578313253012047,7.698795180722892,-2.317596566523605,-5.03065603923973,8.29429797670141,2.0,1.8454212454212457,541.8816990869392,-8.461278480275043,-4.382611735912827,6.756133092477128,1364.8351648351647,-1.0,62.66390438247012,1.8559937627912688,
2023-08-10 11:44:34.750000,-5.096385542168675,-2.397590361445783,7.686746987951808,-2.288166768853464,-5.126302881667688,8.350705088902513,2.0,1.8454212454212457,541.8816990869392,-8.659751762717791,-5.878794942019697,7.259949886370258,1365.5677655677655,-1.0,62.66390438247012,1.8559023121522433,
2023-08-10 11:44:34.757000,-5.1807228915662655,-2.397590361445783,7.771084337349398,-2.300429184549356,-5.229307173513182,8.470876762722256,2.0,1.843956043956044,542.3122765196663,-8.797156342870462,-6.779558300798323,7.458423168813006,1364.8351648351647,-1.0,62.66390438247012,1.8558098558213547,
2023-08-10 11:44:34.765000,-5.253012048192772,-2.3734939759036147,7.91566265060241,-2.2734518700183934,-5.332311465358675,8.642550582464745,2.0,1.843956043956044,542.3122765196663,-8.00326321309947,-8.107802575607483,7.56529339782064,1363.3699633699632,-1.0,62.66390438247012,1.8557164022742956,
2023-08-10 11:44:34.773000,-5.27710843373494,-2.3734939759036147,8.012048192771084,-2.239117106069896,-5.305334150827713,8.767627222562844,2.0,1.8454212454212457,541.8816990869392,-7.621583823786493,-10.077268224462445,7.946972787133617,1361.904761904762,-1.0,62.66390438247012,1.855621961223054,
2023-08-10 11:44:34.780000,-5.240963855421687,-2.3734939759036147,8.108433734939759,-2.322501532801962,-5.194972409564684,8.873083997547516,2.0,1.8424908424908426,542.7435387673956,-6.598683060427715,-10.642153720645652,7.488957519958044,1355.3113553113553,-1.0,62.66390438247012,1.8555265440137079,
2023-08-10 11:44:34.788000,-5.1084337349397595,-2.397590361445783,8.240963855421688,-2.180257510729614,-5.0551808706315144,8.966278356836296,2.0,1.843956043956044,542.3122765196663,-5.209370083328478,-9.802459064157102,7.168346832935144,1349.4505494505493,-1.0,62.66390438247012,1.8554301627201393,
2023-08-10 11:44:34.796000,-4.903614457831326,-2.3855421686746987,8.325301204819278,-2.300429184549356,-4.949724095646842,9.027590435315757,2.0,1.8424908424908426,542.7435387673956,-4.766621991725424,-8.535283491638017,6.9546063749198765,1345.054945054945,-1.0,62.66390438247012,1.855332830432891,
2023-08-10 11:44:34.803000,-4.759036144578314,-2.3734939759036147,8.397590361445783,-2.212139791538933,-4.787860208461066,9.076640098099325,2.0,1.8424908424908426,542.7435387673956,-4.766621991725424,-8.535283491638017,6.9546063749198765,1341.3919413919414,-1.0,62.66390438247012,1.8552345612268337,
2023-08-10 11:44:34.811000,-4.662650602409639,-2.325301204819277,8.397590361445783,-2.1704475781729,-4.738810545677498,9.081545064377682,2.0,1.843956043956044,542.3122765196663,-4.430744129130004,-7.0391002855311475,7.321018588660334,1334.7985347985348,-1.0,62.66390438247012,1.8551353691411197,
2023-08-10 11:44:34.819000,-4.674698795180723,-2.325301204819277,8.361445783132531,-2.2317596566523603,-4.733905579399141,9.071735131820969,2.0,1.8424908424908426,542.7435387673956,-4.369675426839928,-4.550550667210537,8.5729269856069,1328.2051282051282,-1.0,62.66390438247012,1.8550352696153352,
2023-08-10 11:44:34.826000,-4.734939759036145,-2.3012048192771086,8.361445783132531,-2.141017780502759,-4.746167995095034,8.966278356836296,2.0,1.843956043956044,542.3122765196663,-5.148301381038402,-1.6803216595769492,9.611094924538197,1324.5421245421244,-1.0,62.66390438247012,1.8549342794484915,
2023-08-10 11:44:34.834000,-4.807228915662651,-2.3012048192771086,8.265060240963855,-2.153280196198651,-4.893316983445739,8.885346413243408,2.0,1.8424908424908426,542.7435387673956,-5.713186877221608,0.28914398927801244,10.527125458889342,1321.6117216117216,-1.0,62.66390438247012,1.8548324162316603,
2023-08-10 11:44:34.842000,-4.9156626506024095,-2.313253012048193,8.180722891566266,-2.1753525444512567,-4.932556713672593,8.7725321888412,2.0,1.8424908424908426,542.7435387673956,-6.232270846687256,1.83112872210244,11.107278130645067,1317.9487179487178,-1.0,62.66390438247012,1.8547296983416055,
2023-08-10 11:44:34.849000,-4.963855421686747,-2.36144578313253,8.132530120481928,-2.2611894543225013,-4.93746167995095,8.730839975475169,2.0,1.8424908424908426,542.7435387673956,-7.148301381038402,1.7395256686673253,11.092010955072547,1315.018315018315,-1.0,62.66390438247012,1.8546261443712884,
2023-08-10 11:44:34.857000,-4.975903614457832,-2.3855421686746987,8.012048192771084,-2.239117106069896,-4.961986511342734,8.66707541385653,2.0,1.8424908424908426,542.7435387673956,-7.484179243633821,0.8540294854612185,10.863003321484761,1311.3553113553112,-1.0,62.66390438247012,1.8545217735424442,
2023-08-10 11:44:34.865000,-4.951807228915663,-2.3855421686746987,7.987951807228916,-2.3077866339668915,-4.881054567749846,8.637645616186388,2.0,1.8424908424908426,542.7435387673956,-7.2857059611910735,-0.9016957053784761,9.87063690927102,1310.6227106227104,-1.0,62.66390438247012,1.854416605659675,
2023-08-10 11:44:34.872000,-4.891566265060241,-2.3855421686746987,7.963855421686747,-2.2317596566523603,-4.885959534028204,8.647455548743102,2.0,1.8424908424908426,542.7435387673956,-7.194102907755958,-1.83299341530214,9.962239962706136,1312.087912087912,-1.0,62.66390438247012,1.8543106610642306,
2023-08-10 11:44:34.880000,-4.855421686746988,-2.36144578313253,7.987951807228916,-2.2023298589822193,-4.915389331698345,8.642550582464745,2.0,1.8424908424908426,542.7435387673956,-6.6292174115727525,-2.6421537206456516,9.321018588660333,1312.8205128205127,-1.0,62.66390438247012,1.854203960587803,
2023-08-10 11:44:34.888000,-4.843373493975903,-2.3493975903614457,8.036144578313253,-2.219497240956468,-4.807480073574494,8.694052728387492,2.0,1.8424908424908426,542.7435387673956,-6.140667793252142,-2.6421537206456516,9.595827748965677,1312.8205128205127,-1.0,62.66390438247012,1.8540965255066388,
2023-08-10 11:44:34.895000,-4.83132530120482,-2.325301204819277,8.036144578313253,-2.1508277130594724,-4.925199264255058,8.735744941753525,2.0,1.8424908424908426,542.7435387673956,-6.079599090962065,-2.3062758580502316,9.458423168813006,1316.4835164835165,-1.0,62.66390438247012,1.853988377496263,
2023-08-10 11:44:34.903000,-4.867469879518072,-2.313253012048193,8.096385542168676,-2.1630901287553645,-4.861434702636419,8.765174739423665,2.0,1.841025641025641,543.175487465181,-5.972728861954432,-1.3902453236990868,9.412621642095448,1317.9487179487178,-1.0,62.66390438247012,1.853879539044986,
